timestamp,angular_velocity.x,angular_velocity.y,angular_velocity.z,linear_acceleration.x,linear_acceleration.y,linear_acceleration.z
1785982569.9327943,0.0006895116530358791,-0.0005398718058131635,-0.0001883752411231398,0.11758929491043091,-0.12046894431114077,9.792115211486816
1785982569.9485688,0.0011292989365756512,-0.00026439310749992777,-0.004056203179061413,0.0985545665025711,-0.12368865311145662,9.823342323303223
1785982569.9694064,0.0003727097064256668,0.0012820898555219167,-0.004703469108790159,0.10201109945774078,-0.09187234938144563,9.81496524810791
1785982569.990618,0.0017010783776640892,0.001780495047569275,-7.266225293278716e-05,0.09909431636333466,-0.12351091206073642,9.792516708374023
1785982570.0091622,0.0015261564403772354,0.000411754532251507,-0.0006203013472259045,0.1038893610239029,-0.1270827353000629,9.80578899383545
1785982570.031675,0.0007435553707182407,-0.0008118070545606317,-0.0020890086889266968,0.1111142486333847,-0.14309757947921634,9.785576820373535
1785982570.0507264,-0.00281622726470232,0.001059033442288637,-0.0020558550022542477,0.1357678323984146,-0.1158384233713138,9.817523002624512
1785982570.0685842,-0.0034544593654572964,0.0009456914267502722,-0.0029790177941322327,0.10184527933597565,-0.06787383556365847,9.794718742370605
1785982570.089733,0.0008506444282829762,0.004172947723418474,-0.0008465794962830847,0.09051699936389923,-0.09248775988817094,9.838166236877441
1785982570.1095083,-0.0025651054456830025,-0.00021962187020108085,0.0015556736616417766,0.11009030044078827,-0.13608792424201846,9.818771362304688
1785982570.13042,0.002266367431730032,-0.002830365207046271,-0.003981371410191059,0.12331502139568329,-0.0840160921215999,9.826637268066406
1785982570.1494658,0.0018027680926024914,0.0014331855345517395,-0.00105397729203105,0.10242299735546112,-0.10602781921625017,9.823593139648438
1785982570.169207,-0.0008572123479098082,0.0012478008866310115,-0.0030737346969544888,0.10437585413455963,-0.0945930853486049,9.815275192260742
1785982570.190513,-0.00013116607442498207,0.0011018302757292988,0.001537132426165044,0.11711688339710236,-0.08418775349855302,9.808138847351074
1785982570.2086546,0.0023480476811528206,-0.0009260996594093742,-0.0014017033390700815,0.1411498636007309,-0.10074883699416994,9.80441951751709
1785982570.2314792,0.00022530928254127502,0.0013251821510493755,-0.0002799513167701663,0.1460115760564804,-0.10959885269403337,9.810917854309082
1785982570.2494383,-0.001244603656232357,0.0007924867677502333,-0.0004827808006666602,0.10067005455493927,-0.10107194632291673,9.837626457214355
1785982570.2684112,-0.002790616825222969,-0.0006764518911950293,-0.0024784663692116737,0.11008809506893158,-0.1208183392882335,9.808222770690918
1785982570.2918339,-0.0008332591969519854,0.0003264677361585198,-0.0014318992616608739,0.10901303589344025,-0.08710858970880388,9.804961204528809
1785982570.3104868,-0.002090614754706621,-0.001239897683262825,-0.0007909800042398273,0.10830022394657135,-0.11597663909196734,9.759422302246094
1785982570.3313413,0.000916358083486557,-0.000637490476947278,-0.00181616994086653,0.0972975492477417,-0.12307904660701632,9.788723945617676
1785982570.3496501,0.002095575910061598,0.0030986093915998936,0.00096553994808346,0.09505033493041992,-0.11834727227687716,9.793638229370117
1785982570.3707643,-0.0020259052980691195,0.0034148436971008778,-0.00012414675438776653,0.12463264167308807,-0.11979258805513261,9.842665672302246
1785982570.388586,-0.0014144291635602713,0.001276512397453189,0.0005957897519692778,0.08891703188419342,-0.1294921487569797,9.823822021484375
1785982570.4094727,-0.0038174502551555634,-4.996213829144861e-05,-0.002091999165713787,0.13204093277454376,-0.09351571649312854,9.796734809875488
1785982570.4310873,0.0006737476214766502,-0.0002935546799562874,-0.002000821754336357,0.10470204055309296,-0.11126533150672792,9.82406997680664
1785982570.4484966,0.005225807894021273,-0.001813760027289391,-0.0032288711518049236,0.10595713555812836,-0.1178169772028911,9.807107925415039
1785982570.469481,-0.0017943952698260546,0.0003738059313036502,0.0005906127626076341,0.09053488075733185,-0.12583424150943637,9.772993087768555
1785982570.490514,0.0028602429665625095,-0.0004947007982991637,-0.0008352594450116156,0.1322367638349533,-0.09830434620380281,9.842615127563477
1785982570.5085917,-0.004394890274852514,0.00020841188961639976,-0.0020877239294350147,0.12804745137691498,-0.09590457379817843,9.790745735168457
1785982570.5312078,0.0008249427191913128,-0.0017818906344473366,-0.0033271075226366516,0.10003404319286346,-0.15785744786262393,9.802437782287598
1785982570.5496776,-0.0014310211408883333,0.002053971868008375,-0.0011676494032144549,0.11511854827404022,-0.09446972608566165,9.769576072692871
1785982570.5687006,0.00039571570232510567,0.0004712804802693425,-0.0013506151735782623,0.1463613063097,-0.13470405340194583,9.811959266662598
1785982570.5904865,0.0012080790475010872,0.00039416627259924997,-0.001061564194969833,0.10541693866252899,-0.11315914988517642,9.792928695678711
1785982570.6095765,0.0013794731348752975,-0.000868317612912506,-0.0011420083465054631,0.11277849972248077,-0.12892025709152102,9.815409660339355
1785982570.6310437,6.183283403515816e-05,-0.00037499604513868717,-0.0022147782146930695,0.11044736206531525,-0.10865409672260164,9.813394546508789
1785982570.6496036,0.003102866467088461,0.0014787188265472648,-0.0020309598185122013,0.12876789271831512,-0.10325706750154375,9.815910339355469
1785982570.6691823,-0.0033156084828078747,0.0025020241737365723,-0.0016209173481911423,0.1170525997877121,-0.11386140435933946,9.80958366394043
1785982570.6907291,-0.0017267016228288412,-0.0010010993573814635,-0.0028246184810996056,0.11583100259304047,-0.09860023111104844,9.825068473815918
1785982570.7095144,0.00034251390025019646,-0.0017155250534415247,-0.002056350465863943,0.11152498424053192,-0.08153532445430635,9.810165405273438
1785982570.7307696,-0.0006598492618650198,0.0026248109061270952,-0.0005178200663067404,0.10990779101848602,-0.0957309827208507,9.76634407043457
1785982570.7486813,0.0011998782865703106,0.002014690078794956,-0.0011058610398322346,0.13522805273532867,-0.1289493739604938,9.826680183410645
1785982570.7704291,-0.002785895951092243,-0.0013626459985971453,-0.0018362873233854768,0.1327657550573349,-0.08580259978771089,9.817436218261719
1785982570.7886708,0.0008884109556674957,0.00077242188854143,-0.0021176105365157127,0.14133189618587494,-0.1188977211713779,9.774962425231934
1785982570.808573,0.0022113830782473087,0.0011283671483397482,-0.0015209371922537687,0.10775338113307953,-0.10865586251020311,9.824532508850098
1785982570.8317444,0.0019656792283058167,0.0038437694311141968,-0.0016457960009574894,0.1226591020822525,-0.11521004140376925,9.767143249511719
1785982570.848903,-0.0005626631900668144,0.0022423902992159124,-0.0037367553450167183,0.10987038910388947,-0.0851331427693355,9.815415382385254
1785982570.8708227,-0.00201363954693079,0.002354351570829749,-0.0015101750614121558,0.11580942571163177,-0.10374615341424821,9.824239730834961
1785982570.8897905,-0.003229754976928234,-0.00026897893985733417,-0.002134737093001604,0.10486836731433868,-0.10946219414472459,9.815267562866211
1785982570.9096653,-0.0021241740323603153,0.0002477099769748746,-0.0007596731302328408,0.08943894505500793,-0.07059272378682971,9.801183700561523
1785982570.931817,-0.0003404589369893074,-0.0010751283261924984,-0.0012571812840178607,0.13245908915996552,-0.12071576714515565,9.808902740478516
1785982570.9494615,0.0005829883739352226,0.0014365853276103735,0.00015075411647558196,0.10650311410427094,-0.08800770342349885,9.815545082092285
1785982570.9685104,-0.0007967851124703884,-0.000717537826858461,-0.0008297134772874414,0.11981137096881866,-0.08531802892684817,9.789155960083008
1785982570.9895504,0.0008165673352777958,-0.00029472692403942385,-0.003263911698013544,0.1187945157289505,-0.13168486952781558,9.819562911987305
1785982571.0084932,-0.002103622769936919,-0.001483425730839372,-0.0015219716588035224,0.1122628003358841,-0.14514641463756442,9.823058128356934
1785982571.0302603,-7.804343476891518e-05,-0.0006332773482427004,-0.0026529058814048767,0.10420297086238861,-0.09072319418191789,9.814082145690918
1785982571.048517,-0.0014822743833065033,0.0004325589397922156,-0.001840323442593217,0.1415519267320633,-0.12932755053043246,9.840121269226074
1785982571.0694368,-0.0064259604550898075,0.00274928449653089,-0.0032119131647050385,0.12071622908115387,-0.10239072144031405,9.787691116333008
1785982571.090546,0.0009611309505999088,-7.624027784913781e-05,-0.00022477563470602036,0.14675624668598175,-0.12196989357471345,9.802412986755371
1785982571.1104627,0.0007337369024753571,-0.0017650213558226826,-0.002604534849524498,0.10818241536617279,-0.1282723993062961,9.821084022521973
1785982571.1311572,-0.0012841252610087395,0.0016999798826873298,-0.003957891371101141,0.1275276392698288,-0.0911741629242885,9.820283889770508
1785982571.1494317,-0.0020951968617737293,0.0016433051787316797,-0.0018755426863208415,0.11025784909725189,-0.1155019998550403,9.804925918579102
1785982571.1683943,-0.0009209434501826763,0.0007412076229229566,-0.002496824599802494,0.11334080994129181,-0.10114655643701434,9.786970138549805
1785982571.1893678,-0.0006646341644227505,-0.0001382896443828939,0.0010028831893578172,0.11100904643535614,-0.11352364718913911,9.810657501220703
1785982571.252,-2.7756206691265106e-05,0.002540706656873226,0.00014204031322151393,0.13988159596920013,-0.07801610976457476,9.795486450195312
1785982571.2667773,-1.7624814063310623e-05,-0.001370813930407167,-0.0030330964364111423,0.12326903641223907,-0.10719174146652101,9.819069862365723
1785982571.2862947,-0.005066090263426304,0.004869652912020683,-0.0014065394643694169,0.09844394028186798,-0.11029746383428453,9.826833724975586
1785982571.306742,8.430518209934235e-05,0.0012138548772782085,-0.0025231074541807175,0.12215639650821686,-0.13684625923633456,9.81350326538086
1785982571.3278496,0.0010951156727969646,0.001089149736799299,-0.005427312571555376,0.12623970210552216,-0.04178649187087891,9.90052318572998
1785982571.349626,0.00012343190610408783,-0.001462652115151287,-0.007070114370435476,-0.016805842518806458,-0.13996121287345764,9.908196449279785
1785982571.3657043,-0.008030712604522705,0.0006382019491866243,0.00981274712830782,0.4062907099723816,-0.09626992046832919,9.713068962097168
1785982571.387616,0.0015615131705999374,0.00010630965698510247,-0.013205932453274727,0.43622487783432007,-0.013518899679182756,9.833931922912598
1785982571.4079866,0.0001345979981124401,-0.0033845684956759253,-0.030762212350964546,0.2272673100233078,-0.13982230424880862,9.784675598144531
1785982571.425969,-0.011405464261770248,0.002407532650977377,0.03128320723772049,0.2261475771665573,-0.0008303225040423857,9.744783401489258
1785982571.4513152,0.0019620279781520367,-0.004191634245216849,-0.02387695200741291,0.06844383478164673,-0.170488193631171,9.788819313049316
1785982571.467284,0.007177362684160471,-0.004292037338018418,-0.006560116074979304,0.07559163868427277,-0.05138789862394212,9.843683242797852
1785982571.4890873,-3.9177946746349335e-05,-0.00021215307060628907,0.018192172050476074,0.20631371438503265,-0.1140206679701793,9.841349601745605
1785982571.5054398,0.0039070225320756435,-0.0036830275785177963,-0.01482308842241764,0.16449670493602753,-0.11334866285323977,9.796142578125
1785982571.5256588,-0.0008257047738879919,-0.001510461559519172,-0.002605368383228779,0.05873633921146393,-0.07881850749254107,9.770237922668457
1785982571.5524535,-0.0042541855946183205,0.0020030615851283078,0.005041156895458698,0.004532545804977417,-0.03378629684448122,9.790311813354492
1785982571.5681949,0.006882032845169306,-0.00039719033520668886,-0.011318374425172806,0.0824103057384491,-0.1192401647567737,9.805168151855469
1785982571.5866218,-0.003668971359729767,0.003906332887709141,0.0030426317825913425,0.06815741956233978,-0.09976620227098346,9.73162841796875
1785982571.608501,-0.0013375268317759037,-0.0011381845688447356,-0.00011099822586402283,0.18940313160419464,-0.06663793325424074,9.852363586425781
1785982571.629038,0.0025183199904859066,-0.00326768052764237,-0.007487033028155565,0.210893914103508,-0.05465514212846636,9.82801628112793
1785982571.6513789,-0.0030372082255780697,-0.002116329269483685,0.003484703600406647,0.06305697560310364,-0.07111514359712481,9.710050582885742
1785982571.6654575,0.0038667037151753902,0.0007270702626556159,0.0007434285944327711,-0.006327807903289795,-0.03539006412029148,9.716010093688965
1785982571.6865847,-0.0036555142141878605,0.0034154553432017556,-0.005318883806467056,-0.06143905222415924,-0.08179628849029422,9.749517440795898
1785982571.7054322,0.0015315776690840721,0.0033314798492938284,0.0026792623102664943,0.3467346429824829,-0.06239686906337616,9.950160026550293
1785982571.728479,0.002956399228423834,-0.005386411212384701,-0.002689027227461337,0.014696583151817322,-0.056269034743307834,9.663667678833008
1785982571.7514534,0.0005332613363862038,0.004153259564191103,-0.0013090738793835048,-0.059098802506923676,-0.07908499240875126,9.68646240234375
1785982571.7664754,-0.0016980036161839962,0.005325136706233025,0.0005460497923195356,-0.08366380631923676,-0.08873984217643618,9.731549263000488
1785982571.787805,-0.0030892500653862953,-0.0018660009372979405,-0.0018164566718041895,0.29723840951919556,-0.07201594114303468,9.882987022399902
1785982571.8064096,-0.002190492581576109,-0.004355225712060928,-0.0015191551065072413,0.24781785905361176,-0.06572422385215639,9.818554878234863
1785982571.8259037,-0.00031009921804070473,-0.0034126045648008585,-0.00034996017348021225,0.22930394113063812,-0.038651883602141134,9.800251007080078
1785982571.849741,0.004833912942558527,0.0012998982565477486,-0.0030516767874360085,-0.001751720905303955,-0.11319477856159091,9.797117233276367
1785982571.8675501,-0.004286174196749926,0.003759826300665736,0.0001560376258566971,0.03408345580101013,-0.07952825725078463,9.70486068725586
1785982571.8866417,-0.003687615040689707,0.0037081544287502766,-0.0015485147014260296,0.18713463842868805,-0.07854823768138765,9.915497779846191
1785982571.908269,-0.0008393395692110062,-0.0008616143604740504,-0.002410651184618473,0.23952166736125946,-0.07259195297956346,9.871155738830566
1785982571.9278328,0.0029730494134128094,0.0007766494527459144,-0.000810168858151883,0.013139843940734863,-0.10625551640987276,9.859984397888184
1785982571.9498072,-0.0025985317770391703,0.0037416967097669836,-0.0022970139980316166,0.036361128091812134,-0.08019576221704364,9.781049728393555
1785982571.9660103,-0.001904096221551299,0.0031543888617306943,-0.0021469844505190854,0.11021973192691803,-0.13834786415099978,9.776178359985352
1785982571.9863355,-0.001613063970580697,-0.0008527745376341045,0.00016064458759501587,0.19265645742416382,-0.11822603642940399,9.959919929504395
1785982572.0073497,0.0038619674742221832,-0.005157435312867165,-0.0027610976248979564,0.20010456442832947,-0.09217145293950914,9.804933547973633
1785982572.0275714,-0.002470750594511628,0.0027080094441771507,0.0003319660900160667,0.06859132647514343,-0.059787258505820035,9.740816116333008
1785982572.0499315,0.0006752172484993935,0.0009122203919105232,-0.00031831942033022653,0.017978832125663757,-0.05151998251676441,9.669189453125
1785982572.0658317,-0.0029784194193780422,0.0023934904020279646,-0.000984573503956199,0.01758769154548645,-0.10210011899471164,9.741329193115234
1785982572.0874324,-0.0008078943938016891,-0.004364057444036007,-0.003457885235548019,0.20908483862876892,-0.10476499050855516,9.886741638183594
1785982572.1060014,0.0012534181587398052,-0.0024049067869782448,0.00010443595238029987,0.19721928238868713,0.029489398002625702,9.7290678024292
1785982572.126404,-0.0014889107551425695,-0.0006992173730395734,-0.00017039256636053316,0.1078471839427948,-0.07725776731967807,9.74749755859375
1785982572.1491566,-0.004331419710069895,0.0029069632291793823,0.00042852305341511927,0.08359794318675995,-0.05068472027778506,9.753643989562988
1785982572.1662312,0.004132794216275215,0.0002697909367270768,0.00033472827635705466,0.19883692264556885,-0.11608025431632875,9.863968849182129
1785982572.1879625,0.0012605693191289902,-0.0026912493631243706,-0.001516449148766696,0.1968880295753479,-0.10429844260215639,9.81314754486084
1785982572.2060254,0.0026087211444973946,-0.005803626496344805,0.00026014423929154943,0.2860223054885864,-0.04560872912406801,9.800811767578125
1785982572.2260327,-0.00228606048040092,0.0018064666073769329,-0.0010569017613306644,-0.08218645304441452,-0.0963640809059131,9.805063247680664
1785982572.2514267,0.00040658609941601753,0.003858191892504692,-0.0002073081559501593,0.32036092877388,-0.04342100024223207,9.885379791259766
1785982572.2665656,0.0026888311840593815,-9.718880755826843e-05,-0.001024864730425179,0.2926781177520752,-0.016649082303045966,9.9139404296875
1785982572.287917,0.0015302770771086216,-0.005481448490172625,-0.0014334362931549543,-0.07460149377584457,-0.10759535431861758,9.72587776184082
1785982572.3065407,0.002309087198227644,-0.0023123840801417828,0.00036662491038441685,-0.10920380055904388,-0.04876436293125035,9.59596061706543
1785982572.327806,0.000926037784665823,0.0016460916958749294,-0.00013254425721243043,0.01988336443901062,-0.14452236890792727,9.740880012512207
1785982572.3503585,0.00441118236631155,-0.004973826929926872,-0.001299953670240938,0.23008990287780762,-0.1037524864077556,9.915177345275879
1785982572.365965,0.006488025188446045,-0.005529356654733419,0.0019354454707354314,0.06756208837032318,0.06862883269786953,9.599593162536621
1785982572.3885164,-0.0029751406982541084,-0.003423783462494612,-0.004520519636571407,0.34329724311828613,0.07189944386482358,9.800073623657227
1785982572.4064345,0.004910796880722046,-0.006266093347221613,0.0033102640882134446,0.14729052782058716,-0.12532484531402466,9.925028800964355
1785982572.4258296,0.005304710939526558,-0.0011802532244473698,-0.0017893465701490638,-0.02459394931793213,-0.07438074797391774,9.671483993530273
1785982572.4512956,-0.0003381846472620964,0.0013836764264851809,-0.00026560889091342704,0.09197555482387543,0.01003411412239193,9.655800819396973
1785982572.4667404,-0.004622273612767458,-0.0018276977352797992,-0.004649496637284756,0.31841447949409485,-0.20036061108112213,9.936043739318848
1785982572.4865732,0.0004883818328380585,0.0008367456612177189,-0.0033760296646505594,-0.0313640832901001,-0.22758322954177734,9.971198081970215
1785982572.5076408,0.00936987902969122,-0.0015459740534424782,0.00022227829322218914,0.0858798623085022,0.27156293392181513,9.640565872192383
1785982572.52791,0.004950658418238163,-0.0031402381137013435,0.0008325469680130486,0.10954144597053528,0.1960950195789349,9.701690673828125
1785982572.550422,-0.0033882614225149155,-9.770569158718017e-05,-0.0022530921269208193,0.019422605633735657,-0.2678214609622943,9.969701766967773
1785982572.5659785,-0.004552172962576151,0.0029306649230420585,-0.00297554093413055,0.17076441645622253,0.053796336054803134,9.745896339416504
1785982572.5859628,-0.0019133794121444225,0.004333703778684139,-0.0006583092035725718,-0.019045069813728333,-0.24617731571197388,9.883316993713379
1785982572.606049,0.001819321420043707,0.0007587686995975672,-0.0011523327557370067,0.17423859238624573,0.06906276941299558,9.795892715454102
1785982572.6265726,0.0006518261507153511,-0.006624039728194475,-0.002744958968833088,-0.010505810379981995,-0.3230001926422107,9.821621894836426
1785982572.6507196,-0.0063029141165316105,-0.007863340899348259,-0.0053962804377079,0.10704940557479858,0.058924168348313564,9.685859680175781
1785982572.6659653,-0.005036855116486549,-0.004576683975756168,-0.003443470690399408,0.11243224143981934,0.1101786494255078,9.850671768188477
1785982572.6873567,0.0009302170947194099,-0.002739139832556248,-0.002104100072756409,0.24621835350990295,-0.12227259576320527,9.80617618560791
1785982572.7058132,0.005641312338411808,-0.0024572145193815227,0.002124129561707378,0.10634779930114746,-0.10366160422563435,9.620162010192871
1785982572.725414,0.004283314570784569,-0.0011803023517131805,0.0005068874452263118,0.22751417756080627,0.2456192076206219,9.545050621032715
1785982572.7503915,-0.005348438862711191,-0.006093102041631937,-0.0005977413966320447,0.1693529188632965,-0.14429652690887332,9.814840316772461
1785982572.7663808,-0.0014625780750066042,-0.0049547767266631135,-0.004498975351452827,0.22513708472251892,0.003218144178391683,9.637293815612793
1785982572.7875655,0.00036679860204458237,-0.00867176428437233,0.000838612555526198,0.20916488766670227,-0.130217522382735,9.723273277282715
1785982572.8075945,-0.002139514312148094,-0.008758964017033577,-0.0011962404241785396,-0.024921268224716187,-0.16055704653262973,9.832925796508789
1785982572.8278067,0.0021787043660879135,-0.008087691850960255,-0.0002459221868775775,0.2816287577152252,-0.011117145419119592,9.773829460144043
1785982572.8512154,0.004340196028351784,-0.007931019179522991,-0.0007626514998264601,0.24044090509414673,0.14770454168319824,9.931913375854492
1785982572.8664057,-0.003926470875740051,-0.005130148492753506,0.0006822433788329369,0.4338074326515198,-0.15939000248908877,9.831085205078125
1785982572.8856091,0.0036335019394755363,-0.01079622469842434,-0.0034635132178664194,0.16486293077468872,0.13485491275787476,9.918778419494629
1785982572.9065442,-0.003965086303651333,-0.009399586357176304,-0.0008785479003563511,0.2059192955493927,0.044798687100411655,9.718928337097168
1785982572.9277527,0.002814960666000843,-0.017135104164481163,-0.000329847796820102,-0.16814815998077393,-0.021311596035956146,9.710189819335938
1785982572.9493294,0.000984666869044304,-0.01814519800245762,-0.0022869794629514196,0.03787665069103241,-0.22077016532420993,9.848017692565918
1785982572.9673545,-0.0015402613207697868,-0.013487073592841625,-0.0023705817293375713,0.18784454464912415,0.06677743792533994,9.764049530029297
1785982572.9853854,-0.001428848598152399,-0.012606614269316196,-0.00325288833118975,0.1929115355014801,-0.002086564898489691,9.91837215423584
1785982573.006473,-0.00017598876729607582,-0.012356739491224289,-0.004074077121913431,0.14428141713142395,-0.13810765743255496,9.808160781860352
1785982573.0254514,0.001593629363924265,-0.01770702749490738,-0.001883898628875611,0.17178106307983398,-0.01844935119151948,9.896390914916992
1785982573.0497146,0.0052025774493813515,-0.03045879676938057,-0.003490653354674574,0.17106372117996216,-0.17554010450839874,9.989534378051758
1785982573.0663621,-0.012790501117706299,-0.03532348945736885,-0.0027303891256451563,0.28935471177101135,-0.044423609971998915,9.840409278869629
1785982573.0877972,-0.013283085078001022,-0.035229768604040146,-0.006396944634616371,0.12032943964004517,-0.19733551144599795,9.837226867675781
1785982573.106354,-0.01891004480421543,-0.03819264471530914,0.00017764099175110928,0.2473694384098053,-0.13293497264385107,9.618898391723633
1785982573.127826,-0.014269387349486351,-0.04369894787669182,-0.007614920847117896,0.18973061442375183,-0.1835135817527759,9.770712852478027
1785982573.1517317,-0.022008512169122696,-0.05101785808801651,-0.0018539307639002737,0.24073320627212524,-0.03858813643455387,9.674901008605957
1785982573.1679888,-0.028845198452472687,-0.05094742029905319,-0.006881703156977886,0.2140185534954071,-0.14527548849582553,9.798327445983887
1785982573.187005,-0.03667071834206581,-0.05497223138809204,0.0016565341502428122,0.170026957988739,0.004496008157731327,9.999205589294434
1785982573.2056,-0.042103882879018784,-0.060334205627441406,0.0007998100481927469,0.07305628061294556,-0.28212058544158813,9.750714302062988
1785982573.2272618,-0.042945507913827896,-0.06280437111854553,-0.004980486351996652,0.20366764068603516,-0.06358272582292439,9.655234336853027
1785982573.2492852,-0.044802289456129074,-0.08165856450796127,-0.0019087421242147584,0.4854930341243744,0.041136890649796726,9.742416381835938
1785982573.26737,-0.06178437918424606,-0.09035715460777283,-0.0013638713862746843,0.14013779163360596,-0.23697358369827148,10.02341079711914
1785982573.285332,-0.07032833993434906,-0.10627152025699615,-0.0020728432573377956,0.23816043138504028,-0.24406662583351016,9.765451431274414
1785982573.3069644,-0.09454187750816345,-0.13757723569869995,-0.011420316994190199,0.33381059765815735,0.40250387787819025,9.492417335510254
1785982573.3264225,-0.09783070534467697,-0.15991389751434326,-0.004249787889420966,0.03408394753932953,0.092166602611543,10.246889114379883
1785982573.3515337,-0.09059097617864609,-0.18618501722812653,-0.016152950003743147,0.4115683138370514,0.22349178791046267,10.181567192077637
1785982573.3663077,-0.09366880357265472,-0.20783869922161102,-0.003618528135120843,0.4281556308269501,0.044123843312264766,10.447174072265625
1785982573.3878791,-0.08801019191741943,-0.2269536256790161,-0.008317511528730365,0.6591540575027466,-0.624151825904845,9.950254440307617
1785982573.4064333,-0.09716136753559113,-0.2405259609222412,-0.0059802029281854335,0.7505815029144287,-0.6867135763168323,10.106229782104492
1785982573.4263825,-0.06981420516967773,-0.18085993826389313,-0.02039145492017267,-0.20606526732444763,-0.6050451993942249,9.896469116210938
1785982573.466437,0.00929522980004549,0.030932493507862088,-0.022014649584889415,-0.258737176656723,-0.14570981264114247,10.893547058105469
1785982573.4854605,0.024763137102127075,0.038007233291864395,-0.012538255192339426,-0.031007476150989532,0.3745159804821028,11.002963066101074
1785982573.5065453,0.039065513759851456,-0.002872420242056251,-0.0038984995335340496,0.25760865211486816,-0.335178732872008,10.62907600402832
1785982573.5285206,0.04327504336833954,-0.039902463555336,0.02140779979526997,-0.20127354562282562,0.3506987392902388,11.330537796020508
1785982573.5510905,0.0192037895321846,-0.11132034659385681,0.013476596213877215,0.11066442728042603,0.45906403660774364,10.73342227935791
1785982573.5674212,-0.0017719082534313202,-0.14583046734333038,0.011589447036385554,0.25796887278556824,-0.6301031112670886,10.134310722351074
1785982573.5855389,0.019787631928920746,-0.0871402770280838,0.011886520311236392,0.31583109498023987,-0.5146747827529894,10.74889087677002
1785982573.607373,0.059954214841127396,-0.05611327663064003,0.0187218226492405,-0.045500338077545166,-0.6287703514099109,9.93515396118164
1785982573.627631,0.06310471147298813,-0.02643769048154354,0.010461810976266864,-0.045500338077545166,-0.6287703514099109,9.93515396118164
1785982573.6504781,0.055026814341545105,-0.01034776121377945,0.006323155481368304,-0.045500338077545166,-0.6287703514099109,9.93515396118164
1785982573.665426,0.045335013419389725,0.02654924616217613,-0.015497675165534023,0.06737193465232849,-0.61432909965515,10.491897583007812
1785982573.6874294,0.0131987938657403,0.07833267748355865,0.0034874035045504475,-0.4367459714412689,-0.711012244224547,10.60177230834961
1785982573.7053907,0.008869760669767857,0.14441820979118347,-0.022789992392063158,-1.2404201030731201,0.9325242042541517,10.741701126098633
1785982573.750869,-0.05370926111936569,0.29702621698379517,-0.029682343825697934,-0.21172235906124115,0.12179762125015378,9.708244323730469
1785982573.7666242,-0.10300838947296143,0.34762856364250183,-0.03994186967611317,-0.5179694890975952,-0.39757078886031977,10.622145652770996
1785982573.7855153,-0.03153395280241966,0.43858009576797485,-0.036499314010143336,-0.6218470335006714,0.36973133683204784,10.984781265258789
1785982573.8078501,0.07661757618188858,0.46845078468322754,-0.04578653723001486,-0.6471577882766724,0.6003686189651503,10.754415512084961
1785982573.8255923,0.08944133669137955,0.5194404721260071,-0.02922579087316996,0.04971468448638916,-0.09852755814790597,10.496033668518066
1785982573.8874474,0.12779106199741364,0.5148695111274719,-0.0315233543515206,0.6314519643783569,0.34870889782905706,10.554014205932617
1785982573.9073384,0.13540203869342804,0.35503873229026794,-0.013531075790524526,0.6314519643783569,0.34870889782905706,10.554014205932617
1785982573.9263318,0.0968923345208168,0.20331114530563354,-0.02955187484622004,0.9549623727798462,0.42872533202171453,10.567218780517578
1785982573.9509225,0.06697782874107361,0.12267275154590607,-0.02349120564758779,0.9549623727798462,0.42872533202171453,10.567218780517578
1785982573.9662843,0.015004546381533146,0.10707396268844604,-0.031219206750392928,-0.06151067465543747,0.2733007669448865,9.992514610290527
1785982574.0064523,-0.005177143029868603,0.1059248149394989,-0.03390860557556154,-1.1803789138793945,0.19705648720264562,10.499201774597168
1785982574.051115,-0.02739591896533966,0.18025541305541992,-0.03294372931122782,-0.30180418491363525,-0.2933018207550036,10.540390014648438
1785982574.0876048,0.02356903627514839,0.2516336143016815,-0.028439514338970216,-0.30180418491363525,-0.2933018207550036,10.540390014648438
1785982574.1263921,0.10711080580949783,0.2790129780769348,-0.019800014793872868,-0.5258045196533203,-0.7650609612464891,10.590825080871582
1785982574.1501846,0.14468443393707275,0.3147670030593872,-0.006554931402206459,-0.5258045196533203,-0.7650609612464891,10.590825080871582
1785982574.1665187,0.167398601770401,0.30403128266334534,-0.010744692757725752,0.6035780906677246,-0.527828752994536,10.699664115905762
1785982574.2253637,0.1875767707824707,0.13325633108615875,-0.004446612205356376,-0.31867432594299316,0.3428766727447522,10.05679988861084
1785982574.2500627,0.1567825973033905,0.0778183862566948,-0.002185769379138956,-0.3090929388999939,0.3179706931114209,9.854814529418945
1785982574.2652318,0.11077259480953217,0.05802684277296066,0.0038373363204300334,-0.3090929388999939,0.3179706931114209,9.854814529418945
1785982574.2865722,0.054579392075538635,-0.00212713424116373,0.0051970588974654675,0.12805069983005524,-0.07345814257860066,9.653496742248535
1785982574.3266258,-0.0077806273475289345,-0.05288885161280632,0.008526535704731948,-1.8096684217453003,0.5037788748741162,9.627485275268555
1785982574.3489237,-0.02606697380542755,-0.04338572174310684,0.01658844947814942,-1.8096684217453003,0.5037788748741162,9.627485275268555
1785982574.3674564,-0.016004279255867004,-0.0169068556278944,0.007771638222038748,-0.27705469727516174,0.09928719699382896,9.34450912475586
1785982574.3863726,-0.026528097689151764,0.001100650988519195,0.02634451910853386,-0.27705469727516174,0.09928719699382896,9.34450912475586
1785982574.405452,-0.011494284495711327,0.02880632877349854,0.01689154095947742,-0.18873780965805054,0.06569510698318595,9.25304889678955
1785982574.426957,-0.01568160206079483,0.0293551329523325,0.031002521514892575,-0.07342903316020966,0.08213083446025964,9.419052124023438
1785982574.450216,-0.03315526992082596,0.041707273572683334,0.013780224137008185,-0.4491937756538391,0.10815121233463404,9.565690040588379
1785982574.4872818,-0.03281986713409424,0.02188119851052761,0.0067906077019870255,-0.12879812717437744,0.08848811686039088,9.509835243225098
1785982574.5276744,-0.02204565331339836,-0.028693921864032745,0.005073763430118564,-0.4492555260658264,-0.5523886680603016,9.330790519714355
1785982574.5666127,0.022715095430612564,-0.025811228901147842,-0.0016521306242793766,-0.6196137070655823,-0.2621444165706623,9.586684226989746
1785982574.58563,0.018302176147699356,-0.017967410385608673,0.004867908544838431,-0.8536986708641052,0.1388123482465756,9.65451717376709
1785982574.6080291,0.005212469957768917,0.02113463170826435,-0.0016173403710126903,-0.6676660776138306,-0.34944850206375005,9.614750862121582
1785982574.6277544,-0.04005549103021622,0.004496581852436067,0.012552731670439243,-0.9550914168357849,1.0787050724029552,8.85009765625
1785982574.650205,-0.06148791313171387,0.015458337031304836,0.0003859153948724251,-0.9550914168357849,1.0787050724029552,8.85009765625
1785982574.6652603,-0.058373019099235535,0.00327305658720434,0.024989834055304527,-2.5231740474700928,0.2128102928400051,9.24392318725586
1785982574.7053843,-0.09717673808336258,-0.015313007868826388,0.01635072007775307,-0.3993304371833801,0.20796008408069727,9.627840995788574
1785982574.7527049,-0.10249876230955124,-0.03833701089024544,0.010068651288747793,-2.3376383781433105,-0.4531429409980762,9.302605628967285
1785982574.7858787,-0.11120814830064774,-0.023507267236709595,0.0013569456059485702,-0.4378827214241028,-0.04680933058261751,9.815973281860352
1785982574.807376,-0.08813708275556564,-0.011825950816273688,0.013547902926802637,-0.34250009059906006,0.5514159202575695,9.359992980957031
1785982574.8265293,-0.05851396545767784,-0.021168479695916176,-0.0023876733612269137,-0.876227617263794,0.13074995577335474,9.57965087890625
1785982574.8492107,-0.030949994921684265,-0.04995725303888321,0.0038978480733931125,-0.6282480359077454,0.15247724950313687,9.739825248718262
1785982574.8682442,-0.012628649361431599,-0.039487700909376144,-0.007983730174601073,-0.270913690328598,-0.075570300221442,9.655609130859375
1785982574.9072196,-0.00891430489718914,-0.03180721774697304,0.00697727827355266,-0.270913690328598,-0.075570300221442,9.655609130859375
1785982574.926252,0.00671024527400732,-0.07384281605482101,0.020469123497605334,1.047607660293579,-0.24099344015121338,9.871400833129883
1785982574.949612,0.004043221473693848,-0.07659274339675903,0.012678020633757123,-1.8060072660446167,-0.6998643279075611,9.493639945983887
1785982574.967489,0.017818905413150787,-0.08328371495008469,0.0273631475865841,-0.16307249665260315,0.030616804957391004,9.570549964904785
1785982574.9854705,0.046747639775276184,-0.0660371407866478,0.02699669264256955,-0.22063547372817993,0.36077308654785273,9.38769817352295
1785982575.0075226,0.07195958495140076,-0.03614262118935584,0.033357582986354835,0.23954515159130096,-0.16351230442523831,10.173160552978516
1785982575.027655,0.08343147486448288,-0.04011746495962143,0.023995772004127506,0.32349199056625366,1.47255039215088,9.410682678222656
1785982575.0492938,0.07003835588693619,-0.009145635180175301,0.027582669630646706,-0.26999253034591675,-0.04809914529323457,9.856368064880371
1785982575.0665503,0.060968067497015,0.002947603119537237,0.020359115675091743,-0.6158513426780701,-0.04724116623401522,9.777151107788086
1785982575.0854664,0.06165562942624092,-0.01679044403135776,0.02604577131569386,-0.7315870523452759,0.23567448556423307,9.737013816833496
1785982575.1074216,0.055777549743652344,-0.014198884367942807,0.024764543399214748,-0.7982543706893921,0.21107743680477262,9.825447082519531
1785982575.127564,0.041548147797584534,-0.03520493581891059,0.029054647311568264,-0.7982543706893921,0.21107743680477262,9.825447082519531
1785982575.1501734,0.027731724083423615,0.009951311163604263,0.02382112853229046,-0.7982543706893921,0.21107743680477262,9.825447082519531
1785982575.1872811,0.01945953071117401,-0.020804226398468014,0.02251502685248852,-0.5458887815475464,-0.22457398474216342,9.834901809692383
1785982575.225765,0.015290307812392712,-0.024305010214447975,0.0107793752104044,-0.17814591526985168,0.2526711225509655,9.481806755065918
1785982575.2665083,-0.011758011765778065,-0.033047910779714584,0.00303070456720889,-2.724822998046875,0.3083055019378673,9.025702476501465
1785982575.30558,-0.04156281054019928,-0.01989373378455639,-0.007228875532746312,-0.3737334609031677,-0.08425230532884478,9.692750930786133
1785982575.3489978,-0.07791132479906082,-0.03619185462594032,-0.02113883569836616,-0.7165265083312988,0.3084657192230236,9.618884086608887
1785982575.3654509,-0.07733864337205887,-0.0581342838704586,-0.02759867534041404,-0.48074769973754883,0.4400103688240063,9.657429695129395
1785982575.4065876,-0.04737389087677002,-0.07466401904821396,-0.03486764430999755,-1.0563546419143677,0.08177186548709985,9.399813652038574
1785982575.4276142,-0.03684884309768677,-0.02892468683421612,-0.033780094236135476,0.05295313894748688,0.14582337439060328,9.443769454956055
1785982575.4499664,-0.016714228317141533,-0.046983245760202415,-0.03904268890619277,-0.06700599938631058,0.4567193984985363,9.317179679870605
1785982575.4655278,-0.007390161510556936,-0.053180690854787833,-0.03343983367085456,-0.06700599938631058,0.4567193984985363,9.317179679870605
1785982575.4872694,0.006390783470124006,-0.031206278130412105,-0.038676202297210686,-0.3173397481441498,-1.0400069952011097,9.570914268493652
1785982575.505254,0.02591679058969021,-0.028217690065503124,-0.028351685032248494,-0.6401121020317078,0.8714898824691785,9.641621589660645
1785982575.527525,0.04071502014994621,-0.016436373814940456,-0.029172465205192562,-1.6786702871322632,0.4913638830184949,9.830683708190918
1785982575.5503156,0.07537870109081268,-0.0319531075656414,-0.02551823668181896,-1.6786702871322632,0.4913638830184949,9.830683708190918
1785982575.5655966,0.08529236912727356,-0.03338978439569473,-0.003737061982974406,-0.6798591613769531,0.2310235649347317,9.55175495147705
1785982575.587402,0.059366337954998016,0.021867187693715092,-0.016748214140534404,-1.3187159299850464,-0.1430104672908771,9.749625205993652
1785982575.666345,0.037666693329811096,0.005687863100320099,-0.01085209846496582,-0.6040853261947632,0.17803891003131986,9.758784294128418
1785982575.685361,0.02173214964568615,0.01045133452862501,-0.014723468571901323,-1.1453440189361572,0.12934197485447047,9.600571632385254
1785982575.7063813,0.039271280169487,0.028940755873918533,-0.01088046841323376,-0.2006392925977707,-0.17168015241622808,9.562020301818848
1785982575.7262564,0.0445832684636116,0.03786161541938782,-0.013497037813067441,0.1541370153427124,0.4070339202880871,9.603775024414062
1785982575.767827,0.03693190589547157,0.04717779904603958,-0.027014605700969703,-0.1182265505194664,0.15283539891243095,9.294867515563965
1785982575.8061962,0.006930465344339609,0.022863015532493588,-0.028697516769170765,-0.1182265505194664,0.15283539891243095,9.294867515563965
1785982575.8500717,-0.03480667248368263,-0.029261257499456406,-0.006887351162731644,1.1314067840576172,0.8404061794281017,9.052545547485352
1785982575.865532,-0.04881131276488304,-0.03112754598259926,-0.006874146871268746,-0.7368283867835999,-0.1066006869077671,9.436691284179688
1785982575.9255428,-0.004473039880394936,-0.07606054842472076,0.0009369447943754587,0.31487947702407837,-1.182764172554015,9.426859855651855
1785982575.9663796,0.0359489805996418,-0.04909685626626015,0.004864110611379153,-0.4125448167324066,0.5789183378219616,9.495267868041992
1785982575.9852123,0.042819831520318985,-0.036149948835372925,0.01495543215423823,-0.11822207272052765,-0.36241275072097656,10.05894947052002
1785982576.0063076,0.06086346507072449,-0.008562187664210795,0.0074800699949264535,-1.0059161186218262,0.36877399682998774,9.714030265808105
1785982576.0263524,0.0700472742319107,-0.02172496914863586,0.017710382118821148,-1.0059161186218262,0.36877399682998774,9.714030265808105
1785982576.0502033,0.07030679285526276,-0.023742826655507088,0.013195090927183632,0.5106024742126465,0.5423658490180981,9.599925994873047
1785982576.066341,0.06664227694272995,-0.012524567544460295,0.017635827884078026,0.5106024742126465,0.5423658490180981,9.599925994873047
1785982576.085213,0.06415916234254837,0.0025996814947575357,0.02292710542678833,1.5042006969451904,-0.4455696940422046,9.891220092773438
1785982576.1062376,0.06989378482103348,0.017866078764200214,0.02327189594507217,-0.9400787353515625,0.8766869306564343,9.540014266967773
1785982576.1260197,0.0810026153922081,0.0220948550850153,0.031018160283565518,-0.61196368932724,-0.05653505027294039,9.811586380004883
1785982576.1519713,0.0638539269566536,0.023019015789031986,0.02962081134319305,-0.61196368932724,-0.05653505027294039,9.811586380004883
1785982576.1674852,0.05756792798638344,0.020729513838887218,0.03066742047667503,-0.61196368932724,-0.05653505027294039,9.811586380004883
1785982576.1874948,0.04128343239426613,0.02240323089063168,0.028101388365030285,-2.5720508098602295,0.245787873864175,9.10970687866211
1785982576.22536,0.025442160665988922,-0.004338638391345736,0.027552850544452667,-0.5842299461364746,0.3299496769905102,9.60396671295166
1785982576.2850833,-0.006067012436687946,-0.019565859809517857,0.03039428032934666,-0.6013417840003967,0.15146850049495816,9.63834285736084
1785982576.306654,-0.033193040639162064,0.04807984083890915,0.027016285806894295,-2.1171727180480957,-0.18751205503940466,9.538628578186035
1785982576.3262327,-0.008086840622127056,0.05041658505797386,0.012519384734332555,-0.8965549468994141,0.8530807495117199,9.475885391235352
1785982576.3514762,-0.051196083426475525,0.04516342654824257,0.013488400727510447,-0.34710949659347534,0.3876017928123486,9.489447593688965
1785982576.367397,-0.08588796854019165,0.04838050901889801,-0.0013585223350673973,-0.34710949659347534,0.3876017928123486,9.489447593688965
1785982576.3875203,-0.08783132582902908,0.01610364392399788,0.005009724292904137,-1.1213432550430298,-0.5394277572631824,9.784026145935059
1785982576.4065816,-0.12423348426818848,0.01979796774685383,-0.0045905741862952735,0.3549802303314209,1.180790662765504,9.705942153930664
1785982576.4491184,-0.11496754735708237,0.002032245043665169,-0.01584010198712349,-0.5353343486785889,0.5717059969902051,9.577555656433105
1785982576.4863222,-0.086885966360569,-0.01840265654027462,-0.005443727131932971,0.5140526294708252,-0.6692612767219531,9.71235179901123
1785982576.5073514,-0.06822321563959122,-0.01925964467227459,-0.006677619181573388,-0.5595794320106506,0.06780073046684382,9.552154541015625
1785982576.5276017,-0.0332634262740612,0.0007551701273769137,-0.0030507524497807026,-1.8453596830368042,-0.43677681684493896,9.864303588867188
1785982576.551169,-0.02242749184370041,-0.026773029938340187,-0.0033747083507478202,-0.13840582966804504,0.37344127893448,9.866454124450684
1785982576.5664933,-0.012149494141340256,-0.02914222702383995,0.002644782885909084,-0.750838041305542,-0.08979152888059494,9.927582740783691
1785982576.5851843,-0.002411225810647011,-0.011022803373634817,-0.019008202478289604,-0.43651431798934937,-0.12485535442829011,9.90279483795166
1785982576.6061628,0.010446332395076752,-0.052877336740493774,-0.0033218043390661413,-1.0415183305740356,0.15051569044590113,9.417495727539062
1785982576.6262875,0.030953846871852875,-0.05657617375254631,-0.016103420406579964,-1.0135095119476318,-0.03556311130523563,9.706673622131348
1785982576.6514971,0.06304918229579926,-0.06762916594743729,-0.010246686637401572,1.9525015354156494,0.69573211669922,9.839712142944336
1785982576.6661518,0.05105429142713547,-0.08147837966680527,-0.012733121402561654,-0.6015191078186035,0.23697926104068875,9.767327308654785
1785982576.68738,0.041528765112161636,-0.04474114626646042,-0.011056685820221896,-0.6015191078186035,0.23697926104068875,9.767327308654785
1785982576.7065775,0.046031009405851364,-0.05122191458940506,-0.0024949642829596936,-0.626176655292511,0.7734995484352123,9.410234451293945
1785982576.7657616,0.03207773715257645,0.022272400557994843,-0.009075214155018333,0.8485934734344482,0.7383909821510327,9.569961547851562
1785982576.8063443,0.021484656259417534,0.02102089487016201,-0.001880160532891753,0.03836147487163544,0.18553681671619532,9.420909881591797
1785982576.8251944,0.037945784628391266,0.013830234296619892,-0.0025356812402606028,-0.15828105807304382,0.319086015224458,9.95499324798584
1785982576.8504329,0.055972859263420105,0.016398841515183445,-0.014239893294870855,-0.15828105807304382,0.319086015224458,9.95499324798584
1785982576.86509,0.03272440284490585,0.013030340895056723,-0.016288936138153076,-0.15828105807304382,0.319086015224458,9.95499324798584
1785982576.8862054,0.01754825934767723,0.01785863935947418,-0.022650368511676792,-1.2646901607513428,-0.44341373443603394,9.982043266296387
1785982576.9055345,0.008738785050809383,0.041534654796123505,-0.014868300408124929,-1.2646901607513428,-0.44341373443603394,9.982043266296387
1785982576.9261215,-0.02284400910139084,0.051278539001941674,-0.032718867063522346,0.20258212089538574,0.028420403599740244,9.536595344543457
1785982576.9517062,-0.03312768042087555,0.04266134649515152,-0.020926516503095634,-1.600419044494629,-0.08993603289127232,9.63316535949707
1785982576.9675193,-0.03670508787035942,0.02483321167528629,-0.03417600318789482,-0.09286272525787354,-0.01307438313960915,9.306060791015625
1785982576.9876008,-0.037136297672986984,-0.014349511824548248,-0.028724553063511845,-0.21446433663368225,0.8373409509658826,9.810395240783691
1785982577.007423,-0.03789729252457619,-0.010785352438688282,-0.030848510563373566,-1.4464099407196045,-0.10476586222648503,9.631328582763672
1785982577.025366,-0.04806765168905258,0.010188860818743702,-0.02889862470328808,-0.22576801478862762,0.12647150456905482,9.41405200958252
1785982577.0498772,-0.07412972301244736,0.011323194950819012,-0.026721874251961708,1.818361520767212,0.5439713001251232,9.092272758483887
1785982577.0862675,-0.07109502702951431,-0.0332140251994133,-0.027684634551405903,-2.3365237712860107,-0.4492492675781238,9.952021598815918
1785982577.1271331,-0.039930038154125214,-0.029041320085525516,-0.030299145728349682,-0.2613106071949005,0.5580823421478284,9.607988357543945
1785982577.186234,0.001953669125214219,-0.07628899067640305,-0.023339269682764997,0.265300989151001,-0.19246576726436498,9.465547561645508
1785982577.207473,0.004994443617761135,-0.03062810376286507,-0.02881081774830818,0.13713319599628448,0.5721204876899731,9.64095401763916
1785982577.2274756,-0.01658443547785282,-0.04264121502637863,-0.025845676660537713,1.0949294567108154,0.22577781975269434,9.613585472106934
1785982577.250125,-0.0012037442065775394,-0.04241551458835602,-0.023904524743556973,1.0949294567108154,0.22577781975269434,9.613585472106934
1785982577.266033,0.03185971826314926,-0.052507366985082626,-0.024293001741170876,-2.2002580165863037,0.10218970477581144,9.760149955749512
1785982577.2853832,0.016867078840732574,-0.048101406544446945,-0.014769159257411952,-0.38349390029907227,0.10639150440693021,9.708505630493164
1785982577.326338,0.041522614657878876,-0.021556247025728226,-0.008560341782867905,-0.4015202522277832,0.5611525774002087,9.865239143371582
1785982577.340895,0.06096776947379112,-0.009367547929286959,-0.016428286209702492,-1.4267624616622925,0.06990052759647492,9.933050155639648
1785982577.363895,0.06430873274803162,-0.0122979199513793,0.006404339335858824,-1.0282243490219116,0.5425671339035046,10.10245418548584
1785982577.381895,0.07751531898975372,-0.031001590192317963,-0.0029435206670314035,-0.4635804295539856,-0.5780107378959644,9.624719619750977
1785982577.404895,0.07385915517807007,-0.00763830868527293,0.01299885753542185,-0.37609463930130005,-0.2063079476356494,9.993680000305176
1785982577.421895,0.08168421685695648,0.03600383922457695,0.0102432956919074,-0.37609463930130005,-0.2063079476356494,9.993680000305176
1785982577.4458897,0.07674401998519897,0.04918313026428223,0.016171259805560105,-1.1945191621780396,0.45909890532493713,10.026044845581055
1785982577.5038896,0.10840598493814468,0.05802827328443527,0.015036887489259236,-0.6501482129096985,0.624120354652406,9.625502586364746
1785982577.5218897,0.08617742359638214,0.035955265164375305,0.024204626679420468,-0.6452957391738892,-0.02221068739890931,9.895028114318848
1785982577.5628896,0.07555729895830154,-0.021931285038590428,0.023019580170512203,-0.5840478539466858,1.1727142333984386,9.887075424194336
1785982577.6028898,0.055659905076026917,-0.05145017057657242,0.023597426712512977,-0.5840478539466858,1.1727142333984386,9.887075424194336
1785982577.6438897,0.028636105358600616,-0.014199303463101385,0.018995124846696857,-0.5840478539466858,1.1727142333984386,9.887075424194336
1785982577.6608896,0.029533203691244125,-0.007021361961960788,0.03210160508751869,-0.5058532953262329,0.26374059915542725,9.751843452453613
1785982577.6838896,0.021410364657640457,0.015443796291947367,0.01746176369488239,-0.6051125526428223,0.7023548483848584,9.622014999389648
1785982577.7018898,0.016636110842227936,0.02700738608837128,0.03252244368195534,-0.6615617871284485,0.3517864942550671,9.694731712341309
1785982577.7248898,0.025865811854600906,0.053928907960653305,0.01815207675099372,0.19247807562351227,0.07498845458030821,9.906635284423828
1785982577.7428849,0.01680672913789749,0.02924965508282185,0.031339488923549645,-1.481552004814148,-0.3213008344173419,9.978368759155273
1785982577.7838848,-0.0015472730156034231,0.025334024801850322,0.019359743222594258,-1.481552004814148,-0.3213008344173419,9.978368759155273
1785982577.8828847,-0.04599077254533768,0.027603825554251674,0.014580432325601574,-1.5274418592453003,0.7669489383697522,9.7278470993042
1785982577.9058847,-0.0603095181286335,0.049346089363098145,-0.0003069725644309134,-0.40490323305130005,0.25916746258735773,9.435418128967285
1785982577.9228847,-0.049048472195863724,0.0025575719773769396,0.015679556876420975,0.19420063495635986,0.03744274377822996,9.826899528503418
1785982577.9468784,-0.046995438635349274,0.005973344203084707,0.0025803553871810428,-0.9703363180160522,-0.10378904640674472,9.705709457397461
1785982577.9638784,-0.054629892110824585,-0.007366712205111979,0.017402468249201775,-0.2472608983516693,-0.5577387809753406,9.880437850952148
1785982577.9818785,-0.05248640477657318,-0.021213922649621964,-0.0009041874436661575,-0.2472608983516693,-0.5577387809753406,9.880437850952148
1785982578.0048783,-0.04859137907624245,-0.01263583544641733,0.010677611455321314,-1.7149485349655151,0.2854927182197583,9.771614074707031
1785982578.0458784,-0.008463198319077492,0.008508658036589622,0.0027688590344041577,-0.6457971334457397,0.46962124109268305,9.690633773803711
1785982578.0628784,-0.007286368403583765,0.0301103163510561,0.008365855552256104,-0.30748480558395386,0.17683489620685694,9.579575538635254
1785982578.0808785,0.02812349610030651,0.05308138206601143,-0.002418473362922675,0.21537794172763824,0.0661729276180279,9.565300941467285
1785982578.1038785,0.05460713058710098,0.06851697713136673,0.00919857155531644,0.21537794172763824,0.0661729276180279,9.565300941467285
1785982578.1218784,0.058821577578783035,0.03429635614156723,0.006371716037392612,-0.09469957649707794,0.6664789319038403,9.723363876342773
1785982578.1618736,0.012213347479701042,-0.016638360917568203,0.01501284632831812,-0.2886110842227936,0.8214221596717846,9.365538597106934
1785982578.1798735,0.005905480589717627,-0.004231427330523727,0.020715780556201935,-0.8501797318458557,-0.2937418818473804,9.66088581085205
1785982578.2028735,-0.002398334676399827,-0.028603784739971157,0.02379180118441582,-0.156539186835289,-0.21044903993606448,9.832338333129883
1785982578.2208736,-0.032468996942043304,-0.04044941067695618,0.02130348421633244,0.9066507816314697,0.7559475898742687,9.435717582702637
1785982578.2438667,-0.05248251557350159,-0.027023172006011006,0.02101388387382031,0.33453118801116943,-0.5056385993957507,9.758398056030273
1785982578.2608666,-0.02835644595324993,-0.02371043339371681,0.022612553089857105,-0.47749608755111694,-0.029465630650519117,9.856107711791992
1785982578.2838666,-0.0399235300719738,-0.010833193548023699,0.015390731394290926,-0.4934367537498474,0.09436546266079067,9.629918098449707
1785982578.3018665,-0.035495419055223465,0.004471771419048311,0.01712895929813385,-0.44565093517303467,0.20470954477787134,9.492452621459961
1785982578.3248665,-0.03375368192791939,0.03477564826607704,0.013612560927867886,-0.6885992884635925,0.4803792834281933,9.491884231567383
1785982578.3428607,-0.030290918424725533,0.0737677738070488,0.011883018538355819,-0.5473940372467041,0.03574575483799096,9.401345252990723
1785982578.3598607,-0.04422789067029953,0.0752451941370964,0.01640767604112624,-0.6899423599243164,0.9069165587425243,9.304423332214355
1785982578.3828607,-0.058945026248693466,0.07321648299694061,0.011295367032289496,-0.4829835295677185,0.0917752832174313,9.583389282226562
1785982578.4008608,-0.06840570271015167,0.07792297005653381,0.008523879572749127,-1.8326542377471924,0.7163819074630748,9.451971054077148
1785982578.4248607,-0.10828352719545364,0.07328451424837112,0.0018950670491903931,0.4031198024749756,-0.39160722494125244,10.180644989013672
1785982578.4468546,-0.11101614683866501,0.03574454411864281,0.011787368915975089,0.4031198024749756,-0.39160722494125244,10.180644989013672
1785982578.4588547,-0.11399735510349274,-0.005796579178422689,0.004147223662585021,0.734032392501831,1.2105976343154918,9.397723197937012
1785982578.4818547,-0.11830105632543564,-0.0014450823655351975,0.01682964526116848,-0.40877825021743774,0.43857586383819697,9.719897270202637
1785982578.4998546,-0.0949086844921112,-0.005074788350611923,0.013747022487223148,-0.2911960482597351,0.005066812038422827,9.768074035644531
1785982578.52285,-0.06389735639095306,-0.00089314521756023,0.014051813632249832,-1.6260701417922974,-0.09365818649530294,9.52765941619873
1785982578.54585,-0.018122395500540733,-0.006801544222980737,0.006832845974713565,-0.4796610474586487,0.08703757822513702,9.925271987915039
1785982578.56385,-0.020608343183994293,-0.009963182732462881,0.009118255227804186,-0.4796610474586487,0.08703757822513702,9.925271987915039
1785982578.58085,-0.015569876879453659,-0.024529512971639633,0.013710945844650272,-0.43684059381484985,0.30082142353057983,9.835162162780762
1785982578.60485,0.012042989023029804,0.0028514955192804337,-0.0011716808658093218,-1.440273642539978,0.6823849678039562,9.295802116394043
1785982578.62185,0.012511995621025562,0.012786485254764557,0.0020442740060389025,-0.07036224752664566,0.38460099697113154,9.551416397094727
1785982578.6458437,0.013410680927336216,0.015765171498060226,0.0035789399407803995,-0.511753499507904,0.08994196355342986,9.819998741149902
1785982578.662844,0.005582558922469616,0.023288998752832413,0.007303664926439521,-0.3037163019180298,0.21549235284328583,9.943720817565918
1785982578.6808438,-0.01435508020222187,0.028482675552368164,0.00873018708080053,-0.5083197355270386,0.23205997049808622,9.676545143127441
1785982578.7208438,-0.04205096885561943,0.010598647408187391,0.009418732486665247,-0.3428831994533539,0.24810510873794675,9.741501808166504
1785982578.7448378,-0.018396204337477684,0.0059474497102200985,0.0021709969732910386,0.46068885922431946,0.7185260057449352,9.515631675720215
1785982578.7618377,-0.0028410092927515507,-0.00963142141699791,0.002360458951443435,-0.9697121381759644,-0.13998648524284243,9.717634201049805
1785982578.8028376,0.01619005762040615,-0.007507885806262495,-0.01157847326248884,0.4136447012424469,0.2230829298496258,9.573346138000488
1785982578.8438315,-0.005472686141729355,0.028787454590201374,-0.021686464548110965,-0.9192006587982178,0.7558304071426403,9.052754402160645
1785982578.8608315,-0.02944730408489704,0.021330878138542175,-0.0140429986640811,1.1704914569854736,-1.076242685317992,9.656499862670898
1785982578.8838315,-0.045201197266578674,0.00893519818782806,-0.025379212573170662,-1.3719139099121094,0.07032892107963679,9.516392707824707
1785982578.9248316,-0.06014147773385048,0.022488074377179142,-0.02801694162189961,0.06884285807609558,0.20483916997909665,9.655824661254883
1785982578.9658267,-0.037158459424972534,0.00396126369014382,-0.02888709306716919,-0.6424473524093628,-0.6350779533386218,9.63718032836914
1785982578.9838266,-0.037922389805316925,-0.02663369476795197,-0.020834455266594883,-0.006009578704833984,0.8608298301696788,9.16500186920166
1785982579.0058267,-0.02404898591339588,-0.05559086054563523,-0.0322417989373207,-0.8144403696060181,0.2779478132724774,9.7771635055542
1785982579.0238266,-0.01623886078596115,-0.05403023958206177,-0.019907265901565545,-0.8144403696060181,0.2779478132724774,9.7771635055542
1785982579.0468206,-0.0005208319053053856,-0.05572080239653587,-0.02213726192712783,-0.5321570038795471,0.1954061686992657,9.474811553955078
1785982579.0818205,0.007820827886462212,-0.04746377095580101,-0.017583670094609254,0.06451387703418732,0.18160557746887324,9.610321998596191
1785982579.0998206,0.014858461916446686,-0.057736944407224655,-0.005088297650218003,-1.5056980848312378,-0.32815489172935364,10.037609100341797
1785982579.1228206,-0.00417874613776803,-0.041271939873695374,-0.014061773195862765,-0.6227606534957886,-0.5693203210830676,9.73165512084961
1785982579.1398149,0.011542861349880695,-0.01571235992014408,-0.008519749157130716,-0.545028567314148,0.5303722620010388,9.975324630737305
1785982579.163815,0.024681294336915016,0.03438185527920722,-0.028366258367896083,-0.3171258568763733,-0.17035254836082342,9.622720718383789
1785982579.180815,0.03116639144718647,0.03428543731570244,-0.01476202625781298,0.5289746522903442,-0.3139678239822376,9.6649808883667
1785982579.204815,0.03333297371864319,0.03741488233208656,-0.027511660009622577,0.5289746522903442,-0.3139678239822376,9.6649808883667
1785982579.2218149,0.01986865885555744,0.06586077809333801,-0.01275652740150691,0.5289746522903442,-0.3139678239822376,9.6649808883667
1785982579.2618084,-0.036132968962192535,0.03098344802856445,-0.014572751708328727,0.16642633080482483,0.030107557773591274,9.68726634979248
1785982579.2798085,-0.03869067505002022,0.02696183323860168,-0.026689067482948307,-0.47090086340904236,0.8455088734626782,9.603882789611816
1785982579.3038085,-0.02585529163479805,0.027142241597175598,-0.008158206939697269,-0.09584353119134903,0.3270828127861035,9.817164421081543
1785982579.3208084,-0.022744618356227875,0.04235409200191498,-0.020284768193960193,-0.09584353119134903,0.3270828127861035,9.817164421081543
1785982579.3438017,-0.029550310224294662,0.03865313157439232,-0.004111347720026974,0.24227064847946167,-0.3839915394783008,9.9976224899292
1785982579.3618019,-0.03267902135848999,0.01865730993449688,-0.012301303446292879,0.7637850046157837,0.8692982792854321,9.599137306213379
1785982579.3848019,-0.01666831038892269,0.027332955971360207,-0.007211247459053997,-0.3019544780254364,0.0012602359056484386,9.478300094604492
1785982579.4018018,-0.019327081739902496,0.0040686936117708674,-0.006653636693954469,-0.7103443145751953,-0.10554854571819185,9.897783279418945
1785982579.419802,0.0031956173479557037,-0.017015159130096436,-0.00415944494307041,-0.677499532699585,0.285039544105531,9.96467113494873
1785982579.4607954,-0.046697355806827545,-0.007878275588154793,-0.00030243294895626507,-0.2931245267391205,0.03264369070530054,9.525328636169434
1785982579.4837954,-0.04268672689795494,0.00878588855266571,0.002541610272601246,-0.2504637837409973,0.12523858249187586,9.576231956481934
1785982579.5007954,-0.02154633030295372,0.008768977597355843,-2.321755164302993e-05,-0.46367618441581726,-0.3980273008346546,9.714649200439453
1785982579.5417955,0.006684041582047939,0.017967581748962402,0.009718832559883593,-0.9940663576126099,0.27332800626754883,9.831409454345703
1785982579.5647955,0.01664029061794281,0.02650514803826809,0.005167686846107241,0.04976212978363037,-0.047581538558005114,9.549723625183105
1785982579.5827954,0.008343731053173542,0.018266392871737484,0.015228792093694208,0.06933528184890747,0.18348003923893094,9.66671371459961
1785982579.6057954,0.0029323166236281395,0.023220771923661232,0.005856935400515792,-1.5560755729675293,0.29737728834152344,10.101055145263672
1785982579.6227953,0.01542122382670641,0.020749062299728394,0.008033705875277517,-0.7204097509384155,-0.3666558265686023,9.831881523132324
1785982579.6407897,0.03890087082982063,0.010334133170545101,0.003590784268453716,-2.6249144077301025,0.3555601239204419,9.879510879516602
1785982579.6637897,0.06760270893573761,-0.0035276676062494486,0.023980600759387016,-2.6249144077301025,0.3555601239204419,9.879510879516602
1785982579.6817899,0.06308901309967041,-0.008763215504586693,0.022799894213676453,-0.24856841564178467,-0.10800616443157074,10.007246971130371
1785982579.7047899,0.08963993191719055,0.009072843007743362,0.028101643547415733,-1.356494665145874,0.4550263285636914,9.824214935302734
1785982579.7227848,0.09052255749702454,-0.004779381211847064,0.02064269408583641,2.3547587394714355,-0.09334921836852902,10.152989387512207
1785982579.8037846,-0.04748089239001274,0.028314605355262756,0.0005408528959378565,-0.8608259558677673,0.20432184636592984,9.69657039642334
1785982579.844778,-0.07150253653526306,-0.014440543949604036,-0.007109357975423334,-1.5800855159759521,0.02839887142181515,9.691285133361816
1785982579.861778,-0.08883894234895706,-0.03207391873002052,0.0002305461675860027,-0.376664936542511,0.20896337926387903,9.59527587890625
1785982579.885778,-0.09660849720239639,-0.05403050035238266,-0.005431475117802613,1.278136134147644,0.4779959917068493,9.480718612670898
1785982579.920778,-0.08245961368083954,-0.017514312639832497,-0.014148454181849955,-0.1336449831724167,0.0010850131511699905,9.53089714050293
1785982579.9617717,-0.04518204927444458,0.03301673009991646,-0.012732959352433685,-0.6732719540596008,1.4112327098846449,10.145390510559082
1785982580.0017717,0.007333745714277029,0.06167629733681679,-0.01566405966877938,-1.0744500160217285,0.3017964363098157,9.76247501373291
1785982580.0427716,0.021669568493962288,0.06896889954805374,-0.016777725890278823,0.6030865907669067,-0.136226326227187,9.140925407409668
1785982580.0607717,0.011660279706120491,0.0524982251226902,-0.010624566115438945,-1.3704079389572144,0.20989324152469752,9.487103462219238
1785982580.0827715,0.008661635220050812,0.03926246613264084,-0.014525295235216623,-1.3704079389572144,0.20989324152469752,9.487103462219238
1785982580.1007717,-0.01077122613787651,0.04338925704360008,-0.010965731926262384,0.0987524539232254,0.2902143001556408,9.516419410705566
1785982580.1237717,-0.0002858005464076996,0.04768926650285721,-0.01478076539933682,0.1464439481496811,0.5873721241951,9.39140796661377
1785982580.1417649,-0.008249787613749504,0.03143422678112984,-0.0201373714953661,-2.7485616207122803,0.26187503337860235,10.26098346710205
1785982580.181765,-0.016934653744101524,-0.03253987058997154,-0.014602134004235264,0.14411596953868866,-0.06215266883373147,9.274441719055176
1785982580.199765,-0.021796436980366707,-0.0503394640982151,-0.011911863461136811,-0.2522500157356262,0.03284648060798766,9.870332717895508
1785982580.222765,0.009332617744803429,-0.05323782190680504,-0.022066971287131303,-1.5204020738601685,0.32114732265472534,9.914443969726562
1785982580.2407584,0.05845078453421593,-0.07420562207698822,0.0007858034223318191,-1.5204020738601685,0.32114732265472534,9.914443969726562
1785982580.2637584,0.07016007602214813,-0.05000578239560127,-0.012730808928608887,0.06041203439235687,-0.24391210079193,9.462779998779297
1785982580.2817583,0.10535731911659241,-0.038384340703487396,0.0014163253363221931,0.06041203439235687,-0.24391210079193,9.462779998779297
1785982580.3447516,0.09466663002967834,-0.05593999847769737,-0.008356136269867413,1.6371290683746338,0.08503253757953759,9.454673767089844
1785982580.3627517,0.07308712601661682,-0.026916172355413437,-0.01157859060913324,0.12132929265499115,0.05711959302425501,9.535636901855469
1785982580.3797517,0.04831692576408386,-0.013831151649355888,5.9464597143234516e-05,-1.578794240951538,-0.1537182629108417,9.79320240020752
1785982580.4037516,0.044859085232019424,0.016794810071587563,-0.0011613030219450613,-0.7689161896705627,-0.7166822552680957,9.724747657775879
1785982580.4207516,0.02010766603052616,0.04578904062509537,0.0022420771420001927,1.3575165271759033,-0.23987403512000924,9.219822883605957
1785982580.4617453,0.029130637645721436,0.05088616907596588,0.004044234752655023,-0.09265048801898956,-0.21652138233184692,9.945515632629395
1785982580.4847453,0.03275951370596886,0.04918587580323219,0.005149301607161754,-0.2899269461631775,-0.1599532663822162,9.666204452514648
1785982580.5027454,0.026405494660139084,0.05275752767920494,0.00801116041839122,-0.18377253413200378,0.47794938087463495,9.609053611755371
1785982580.5197453,0.018889106810092926,0.05006036162376404,0.0021878033876419007,-0.31577569246292114,-0.2214895784854877,9.790102005004883
1785982580.5437384,0.050163157284259796,0.0651777982711792,0.004438156727701418,-0.3409561216831207,0.004327878355981071,9.402379989624023
1785982580.5607383,0.07425490766763687,0.05507643148303032,-0.008237699046731002,-0.7932506203651428,-0.1107291579246509,9.747458457946777
1785982580.6007383,0.08361386507749557,0.0008039565291255708,-0.003170740557834506,-0.4908025860786438,-0.08629379421472429,9.810779571533203
1785982580.6427317,0.07457102835178375,-0.06855497509241104,-0.002749809296801678,-0.6280080080032349,-0.03327304124832032,9.893738746643066
1785982580.6827316,0.03112008422613144,-0.07570338994264603,0.005183784756809483,-1.210911512374878,-0.4284756779670703,9.93358039855957
1785982580.7007318,-0.009596819058060646,-0.08524174988269806,0.027628619223833095,-0.6842050552368164,0.6905879974365247,10.0867338180542
1785982580.7237318,-0.06962259858846664,-0.0920155867934227,0.013450485654175292,-0.436005175113678,0.0626440942287457,9.775505065917969
1785982580.7467253,-0.08561036735773087,-0.1131654754281044,0.030559226870536818,-0.42983466386795044,-0.061180070042608975,9.764026641845703
1785982580.7647252,-0.08727362751960754,-0.1014893651008606,0.01262535620480777,-0.42983466386795044,-0.061180070042608975,9.764026641845703
1785982580.7827253,-0.06727535277605057,-0.10977816581726074,0.029632639139890685,-0.5733648538589478,-0.5355303287506091,10.028839111328125
1785982580.8227253,-0.06731804460287094,-0.0709095299243927,0.02358069457113744,-1.4508588314056396,-0.3929692506790149,9.921958923339844
1785982580.8407197,-0.06684550642967224,-0.04695930331945419,0.012806586921215063,0.5704425573348999,-0.48807853460311773,9.583194732666016
1785982580.8637197,-0.04851096495985985,-0.020943349227309227,0.00476211775094271,-1.111724615097046,0.8201858401298535,10.29371166229248
1785982580.8867197,-0.005235590506345034,-0.005660340189933776,0.01004321500658989,-1.111724615097046,0.8201858401298535,10.29371166229248
1785982580.9037197,-0.0017247763462364674,-0.004976676777005194,0.010828578844666481,0.3581733703613281,-0.1950705945491779,9.587109565734863
1785982580.9447134,0.028523501008749008,-0.00463950540870428,0.008127864450216293,0.5216175317764282,-0.43844830989837524,9.86119556427002
1785982580.9627132,0.0030717807821929455,-0.00901646353304386,0.007109605241566897,-1.8810900449752808,0.6476331353187573,10.083281517028809
1785982580.9797132,-0.040621668100357056,-0.009453581646084785,-0.00019208542653359356,0.3962467908859253,-1.382992386817931,9.801447868347168
1785982581.0207133,-0.09760259836912155,-0.04703301563858986,0.005695739760994917,-1.0156397819519043,0.03654915094375733,10.003397941589355
1785982581.0437067,-0.09918584674596786,-0.07396949082612991,0.007968363352119931,-0.8695313334465027,-0.5211923122405994,10.213321685791016
1785982581.0617065,-0.09947870671749115,-0.07698783278465271,0.0007747529307380413,-1.282772183418274,0.11666955053806428,10.032458305358887
1785982581.1027067,-0.12288798391819,-0.04422297328710556,0.005711938720196491,-0.7343614101409912,0.005334883928300132,9.650949478149414
1785982581.1197066,-0.12263472378253937,-0.007125688251107929,0.0170449111610651,-0.9829478859901428,-0.34687840938567993,9.993623733520508
1785982581.1437,-0.08186935633420944,0.024650171399116516,0.012590615078806874,-1.2995736598968506,-0.5439433455467212,9.584454536437988
1785982581.1657,-0.06068015471100807,0.060345876961946494,0.02977624908089637,-0.5620090961456299,0.11714549362659574,9.793739318847656
1785982581.1837,-0.011669255793094635,0.08591107279062271,0.03544102981686591,-0.6452456712722778,-0.3230684399604785,9.795700073242188
1785982581.2007,0.022669516503810883,0.10410655289888382,0.03746935725212096,-0.34833580255508423,-0.29246890544891235,9.970223426818848
1785982581.2247,0.058312367647886276,0.11980576068162918,0.0432474836707115,-0.34833580255508423,-0.29246890544891235,9.970223426818848
1785982581.2416935,0.07209339737892151,0.09697509557008743,0.044016156345605836,-0.34833580255508423,-0.29246890544891235,9.970223426818848
1785982581.2826936,0.08317816257476807,0.05758308619260789,0.03283026069402694,-0.1985054314136505,-0.120743006467818,9.824289321899414
1785982581.2996936,0.090387724339962,-0.008532341569662089,0.04192805662751198,-0.9089881181716919,-0.2214728891849506,9.842840194702148
1785982581.3236935,0.06886643916368484,-0.05876196175813675,0.022076444700360305,0.44212639331817627,0.35148769617080805,9.460515975952148
1785982581.3406873,0.038087740540504456,-0.08347175270318985,0.021667584776878367,-0.12279805541038513,-1.0846531391143786,10.370776176452637
1785982581.3636873,-0.0009005831088870764,-0.08439436554908752,0.0219768024981022,0.44581878185272217,-0.6003060936927783,9.781268119812012
1785982581.4046872,-0.08946944028139114,-0.06472814828157425,0.023805294185876853,-1.8578482866287231,0.553129792213441,9.503357887268066
1785982581.422687,-0.10783873498439789,-0.0637478157877922,0.03461362794041634,0.36002373695373535,-0.9222630262374866,9.830484390258789
1785982581.445681,-0.11966369301080704,-0.07598491758108139,0.04047191888093949,-2.441274404525757,0.21978968381881836,9.888296127319336
1785982581.462681,-0.09429469704627991,-0.0783250480890274,0.023284083232283603,-0.6636177897453308,-0.18655548989772675,9.967719078063965
1785982581.485681,-0.06542114168405533,-0.06160851195454597,0.03403302654623986,-0.133668452501297,-0.24979047477245211,9.8124418258667
1785982581.503681,-0.06395483016967773,-0.02486022002995014,0.021887883543968204,-0.2900713086128235,0.03944906592369197,9.585753440856934
1785982581.5206811,-0.06057027727365494,-0.05003643408417701,0.028694586828351028,-0.23384805023670197,-0.3795366287231433,9.963083267211914
1785982581.5446737,-0.04208526015281677,-0.02293994277715683,0.0017261555185541539,-1.1454851627349854,0.029998555779458265,9.564311981201172
1785982581.5616736,0.00010912120342254639,-0.04475131630897522,0.009384269826114183,-0.8636120557785034,-0.1446203440427768,9.940167427062988
1785982581.5786736,0.020998729392886162,-0.047026220709085464,-0.012880443595349783,-0.8636120557785034,-0.1446203440427768,9.940167427062988
1785982581.6026735,0.03918016701936722,-0.06697080284357071,-0.006630282849073402,-0.4845556616783142,-0.6174104213714587,9.856614112854004
1785982581.6196735,0.036972805857658386,-0.06655970960855484,-0.010838525369763366,0.5038641691207886,1.0582864284515392,9.467995643615723
1785982581.6426675,0.033034466207027435,-0.06821256875991821,-0.014089410193264476,-1.051697015762329,0.04461684823036316,9.978528022766113
1785982581.6606674,0.0023074238561093807,-0.08500493317842484,-0.023652367293834676,-1.550553798675537,-0.28285583853721497,10.097014427185059
1785982581.6836674,-0.021365666761994362,-0.10047202557325363,-0.027666971087455736,-0.9702242016792297,0.14234048128128174,10.074111938476562
1785982581.7016675,-0.03057144023478031,-0.07938999682664871,-0.02466209977865218,-0.3025650382041931,-0.0048791468143451365,9.608078956604004
1785982581.724663,-0.05708914250135422,-0.051771879196167,-0.04088961705565452,-0.030490733683109283,0.5513836145401013,9.936514854431152
1785982581.7426631,-0.054523371160030365,-0.08027965575456619,-0.027435459196567525,-1.107107162475586,0.16593331098556643,10.160553932189941
1785982581.7656631,-0.029759304597973824,-0.08482762426137924,-0.04156026616692542,-1.107107162475586,0.16593331098556643,10.160553932189941
1785982581.782663,-0.033743880689144135,-0.0722556933760643,-0.02547403797507285,-0.16753308475017548,0.014322593808175346,9.90760612487793
1785982581.823663,-0.016059517860412598,-0.022503390908241275,-0.02867014147341251,-0.7028354406356812,-0.629445433616637,9.734965324401855
1785982581.8406568,-0.009897362440824509,-0.004413420800119642,-0.0287448950111866,-0.3375212848186493,0.08182892203331114,9.894898414611816
1785982581.8636568,0.015602650120854378,-0.01342495530843735,-0.017652437090873718,-0.5057232975959778,-0.0012009888887393127,10.018071174621582
1785982581.8816566,0.06662778556346893,-0.019171934574842456,-0.024052483960986134,0.05661579966545105,0.32437381148338434,9.643356323242188
1785982581.8986566,0.08673673123121262,-0.023460788652300835,-0.013962723314762112,-0.4135094881057739,-0.07630767673253891,9.92335033416748
1785982581.9226568,0.10815931111574173,-0.0017143992008641384,-0.018285656347870827,-0.9142594337463379,-0.2526273131370532,9.951552391052246
1785982581.945651,0.12825408577919006,-0.019242502748966217,-0.009272968396544455,0.10056351125240326,0.4018405675888074,10.01021671295166
1785982581.9636512,0.15634660422801971,-0.018417201936244965,-0.007998758926987646,-0.5316846966743469,0.6059888005256665,9.955412864685059
1785982581.9806511,0.14335517585277557,-0.003593114903196693,-0.0045602433383464805,-1.4114084243774414,-0.9363568425178516,9.659740447998047
1785982582.0036511,0.12792883813381195,0.03588053956627846,-0.004147688858211045,-0.3133390545845032,-0.33130756020545843,9.547944068908691
1785982582.021651,0.14558669924736023,0.04301571100950241,-0.005068100523203617,-0.6105615496635437,0.4641111493110669,10.041361808776855
1785982582.0446436,0.127131849527359,0.035197317600250244,0.004612519405782218,-1.0778342485427856,-0.734613776206969,10.051836013793945
1785982582.0616436,0.15448130667209625,0.008948756381869316,0.006603793706744908,-0.34179747104644775,-0.022522509098051802,9.596850395202637
1785982582.0796437,0.14017747342586517,0.02349382266402245,0.01681835390627384,-0.8258816599845886,0.1271355748176587,9.980968475341797
1785982582.1026437,0.13539789617061615,0.026273509487509727,0.004861536435782906,-0.02607838809490204,-0.8835438489913928,10.007340431213379
1785982582.1206436,0.14036144316196442,0.023297835141420364,0.008809109218418595,-0.6225060820579529,-0.3196662068366992,9.8639554977417
1785982582.1436372,0.13208326697349548,0.012263207696378231,0.0006318305386230334,-0.6225060820579529,-0.3196662068366992,9.8639554977417
1785982582.1616373,0.11116731911897659,-0.0034558747429400665,0.01574096642434597,1.6038562059402466,0.16187271475792056,10.27462387084961
1785982582.1846373,0.055535562336444855,0.01109039131551981,-0.0008962602587416782,0.008602648973464966,-0.5580388307571399,9.96151065826416
1785982582.2016373,0.06744667142629623,0.02371687814593315,0.009930610656738278,-0.07383090257644653,-0.25377768278121826,9.963376998901367
1785982582.2426302,0.020295308902859688,0.013199799694120886,0.014228648506104944,-2.5539138317108154,-0.3726524114608752,10.439306259155273
1785982582.2656302,-0.01720680668950081,0.008962441235780716,0.0018858256516978134,-0.0929117277264595,-0.00786116719245789,9.924168586730957
1785982582.2826304,-0.000163910910487175,0.00069127476308495,0.01569465734064579,-0.7599097490310669,0.26256328821182373,9.79195785522461
1785982582.3006303,-0.017030417919158936,0.0007131783058866857,-0.0007724714232608677,-0.25536465644836426,-0.24876087903976318,10.078347206115723
1785982582.3176303,-0.015091468580067158,-0.005837819073349237,0.009482231922447681,0.18658070266246796,0.18052449822425962,9.839367866516113
1785982582.3416238,0.014657771214842796,-0.015695180743932724,0.0019366253400221487,-1.1326438188552856,0.1013658940792096,9.920614242553711
1785982582.3586237,0.010617890395224094,-0.031077463179826736,0.006638091988861564,-0.5062094330787659,-0.2868095040321338,9.779573440551758
1785982582.3826237,0.027232641354203224,-0.029234077781438828,-5.612499080594774e-06,-0.5600947141647339,-0.05833531171083326,10.126916885375977
1785982582.3996236,0.02407764084637165,-0.021279169246554375,7.718271808699034e-05,-0.9922735095024109,-0.5385036468505847,9.984795570373535
1785982582.4466171,0.031301554292440414,-0.025228675454854965,0.0013733122032135755,-0.38879019021987915,-0.28755271434783813,9.951187133789062
1785982582.463617,0.023650482296943665,-0.0033238413743674764,-0.008692596107721329,-1.4444655179977417,-0.43084824085235474,9.831769943237305
1785982582.481617,0.014604374766349792,-0.012162107974290848,-0.0042300652712583525,-0.8596694469451904,-0.23138403892516968,10.035773277282715
1785982582.504617,0.03215407207608223,-0.013591626659035684,-0.01659121923148632,-0.8596694469451904,-0.23138403892516968,10.035773277282715
1785982582.5216122,0.02159104496240616,-0.03077032044529915,-0.006706689484417435,-2.2974109649658203,-0.355832517147063,10.00645923614502
1785982582.5446122,0.024313192814588547,-0.04548695310950279,-0.00917847547680139,-0.7446191310882568,-0.006780937314032314,9.751265525817871
1785982582.562612,0.02208191528916359,-0.07471415400505066,-7.772265234961191e-05,-0.030898332595825195,-0.04091764986514925,9.803489685058594
1785982582.585612,0.031202279031276703,-0.09226044267416,-0.007012013345956791,0.16330622136592865,-0.20536735653877142,9.573948860168457
1785982582.6036122,0.030823037028312683,-0.10371466726064682,-0.0006462518358602993,-0.3806007206439972,-0.4246052503585803,9.937274932861328
1785982582.6206121,0.032536737620830536,-0.11162662506103516,-0.0058793844655156,-0.8099889159202576,-0.7695217728614795,9.929911613464355
1785982582.6446052,0.03284678980708122,-0.11586739122867584,0.001885055098682656,-0.8099889159202576,-0.7695217728614795,9.929911613464355
1785982582.6616054,0.0280216783285141,-0.10876993089914322,-0.007039908319711672,0.13214229047298431,-0.5661975741386401,9.971933364868164
1785982582.6796052,0.03230751305818558,-0.10789350420236588,0.003154939739033593,-0.3690107464790344,0.23180849850177884,9.730887413024902
1785982582.7026052,0.04143848642706871,-0.10816476494073868,-0.0045868996530771125,-0.3690107464790344,0.23180849850177884,9.730887413024902
1785982582.7206051,0.03964443504810333,-0.10557636618614197,0.0072743650525808464,-0.3690107464790344,0.23180849850177884,9.730887413024902
1785982582.7435987,0.02676786482334137,-0.09829143434762955,-0.001966042909771192,-0.3690107464790344,0.23180849850177884,9.730887413024902
1785982582.7615986,0.04466554895043373,-0.09880386292934418,0.005002580583095563,-0.9814848899841309,0.4031735062599195,10.276239395141602
1785982582.7845986,0.059940095990896225,-0.10302143543958664,-0.00161461276002227,-0.8189332485198975,-0.13085737824439883,9.727595329284668
1785982582.8015985,0.04645930603146553,-0.09134525805711746,0.0058369971811771506,-0.8189332485198975,-0.13085737824439883,9.727595329284668
1785982582.842592,0.04665651172399521,-0.10025708377361298,0.01311067305505277,-0.8189332485198975,-0.13085737824439883,9.727595329284668
1785982582.865592,0.03212563320994377,-0.08424119651317596,0.002572502009570609,-0.8189332485198975,-0.13085737824439883,9.727595329284668
1785982582.882592,0.029640723019838333,-0.06151716038584709,0.006352759897708901,-0.007163882255554199,-0.3313063979148853,9.659823417663574
1785982582.9005919,0.028668340295553207,-0.05314883589744568,-0.002419251017272466,-0.007163882255554199,-0.3313063979148853,9.659823417663574
1785982582.9235919,0.03343833610415459,-0.04321712628006935,0.009183293208479886,0.7046188712120056,-0.6127966046333301,9.953693389892578
1785982582.9415853,0.027501001954078674,-0.051983967423439026,0.003180492669343955,-1.5991370677947998,0.13096563518047458,10.111448287963867
1785982582.9645853,0.021294686943292618,-0.04926375299692154,0.011922112666070466,-0.34453296661376953,-0.8341275453567493,10.03493881225586
1785982582.9825852,0.027535390108823776,-0.07353851199150085,0.004065018147230157,-0.3455578088760376,0.6766400933265698,10.051413536071777
1785982582.9995854,0.018129896372556686,-0.07687562704086304,0.010719886980950841,-0.1540375053882599,0.05181127786636474,9.926584243774414
1785982583.0235853,0.006167339161038399,-0.053525425493717194,0.0050061168149113724,0.7460435032844543,-0.23492503166198614,9.41479778289795
1785982583.0405786,0.006510036066174507,-0.0491083599627018,0.011853275820612913,0.7460435032844543,-0.23492503166198614,9.41479778289795
1785982583.0645785,0.014835111796855927,-0.058828286826610565,0.009157449007034309,-0.0962001383304596,-0.7486112117767322,9.812440872192383
1785982583.0815787,0.005326434038579464,-0.044120483100414276,0.01837648823857308,-0.3301336467266083,-0.1597346216440189,9.747027397155762
1785982583.1045787,0.012753099203109741,-0.03466586023569107,0.0077601764351129575,-1.2068196535110474,-0.46405714750289795,10.082513809204102
1785982583.1225786,0.02127881348133087,-0.02585066668689251,0.00754810776561499,-1.2068196535110474,-0.46405714750289795,10.082513809204102
1785982583.1455722,0.01903030276298523,-0.046696946024894714,0.010994233191013341,-2.5251336097717285,0.6619558930397046,10.364323616027832
1785982583.1805723,0.001402127556502819,-0.0405748076736927,0.0075248032808303885,-1.6353501081466675,0.676817059516908,9.94259262084961
1785982583.2035723,0.0003223069943487644,-0.02503453940153122,0.011098715476691726,0.311400830745697,0.5591591596603406,9.774492263793945
1785982583.262566,-0.013445019721984863,-0.012421628460288048,0.006314267404377462,-0.720971941947937,-0.17439860105514404,10.044461250305176
1785982583.279566,-0.026605617254972458,-0.0032641380093991735,0.018860427662730217,-0.4715631604194641,-0.14116574823856237,9.58115005493164
1785982583.303566,-0.01596243679523468,-0.002037938218563794,0.011328248307108879,0.11951790750026703,-0.5056231021881091,10.073195457458496
1785982583.3205662,-0.01919643208384514,0.007795727346092463,0.010302636772394179,0.11951790750026703,-0.5056231021881091,10.073195457458496
1785982583.3445597,-0.024343375116586685,-0.000834786682389675,0.012187126092612743,-0.11673295497894287,-0.790968596935271,9.983297348022461
1785982583.3615596,-0.023166604340076447,-0.012123553082346914,0.015821263194084167,-0.8950888514518738,0.31920069456100586,9.866659164428711
1785982583.3795598,-0.01603461056947708,-0.008974283933639525,0.007329846732318402,0.40875911712646484,-0.1300811171531665,9.961541175842285
1785982583.4025598,-0.028014428913593292,-0.018613141030073162,0.0167545210570097,0.40875911712646484,-0.1300811171531665,9.961541175842285
1785982583.4195597,-0.023397177457809448,-0.00997364707291126,0.008056139573454859,-0.2180192768573761,-0.19443655014037964,9.971473693847656
1785982583.442553,-0.031490523368120193,0.006538947112858296,0.008179222233593464,-0.29173362255096436,0.1738935858011258,9.906841278076172
1785982583.460553,-0.003076778259128332,-0.008458893746137617,0.013156523928046228,-0.27162981033325195,-0.5331882834434497,10.0960111618042
1785982583.483553,-0.01653027907013893,-0.004241603426635264,0.012897727079689503,-0.27162981033325195,-0.5331882834434497,10.0960111618042
1785982583.501553,0.0015249610878527164,-0.008693129755556582,0.008836917579174043,-1.2148323059082031,-1.0418195724487291,10.357439994812012
1785982583.524553,-0.01596713811159134,0.01106109004467726,0.016659028828144073,0.07462623715400696,-0.31107676029205206,9.623982429504395
1785982583.541546,-0.006581991445273161,0.009083806537091734,0.01061988156288862,-0.5825636982917786,-0.32949471473693726,9.925559997558594
1785982583.582546,0.013512439094483852,0.008363788016140463,0.015860825777053833,-1.5494388341903687,0.6517037749290479,10.051353454589844
1785982583.605546,0.004403478465974331,0.013580476865172386,0.005767027847468851,-1.0064977407455444,0.12618191540241364,10.031156539916992
1785982583.6225462,0.005364931188523769,0.010479909367859365,0.015940535813570023,-0.3347817063331604,-0.46393728256225464,9.892740249633789
1785982583.6405394,-0.004979779943823814,0.013326709158718588,0.009348697960376738,-0.6333611011505127,0.019087210297585755,9.966010093688965
1785982583.6635394,-0.005312522407621145,0.01383915822952986,0.009375362657010554,-0.16626004874706268,-0.24287131428718445,10.064576148986816
1785982583.6815395,-0.012564428150653839,0.017525428906083107,0.00771495373919606,-0.4275246262550354,0.4283144474029553,9.799779891967773
1785982583.7045395,-0.0263587087392807,-0.004290595185011624,0.004868789110332728,-1.7905853986740112,-0.20219646394252652,10.142328262329102
1785982583.7225394,-0.02950640395283699,0.0005787591217085725,0.004205948207527399,0.3239783048629761,0.19972918927669644,9.729997634887695
1785982583.7455394,-0.016510996967554092,0.021002735942602158,0.005899347830563781,-2.067065954208374,-0.5836623907089221,9.891305923461914
1785982583.7635396,-0.037226367741823196,0.019223125651478767,0.0058751786127686475,0.7997098565101624,-0.3509463071823108,9.934318542480469
1785982583.7805395,-0.025067944079637527,0.013993917964398861,0.0010162739781662804,-0.2646838426589966,-0.4983217716217028,10.30509090423584
1785982583.8035395,-0.021198902279138565,0.009082468226552008,-0.007701999042183162,-0.396098792552948,-0.1873377263545978,9.823103904724121
1785982583.8215394,-0.028749991208314896,-0.0007097022607922551,0.00254808203317225,-0.8216970562934875,-0.3927815556526172,9.911476135253906
1785982583.8445325,-0.017634078860282898,0.01863190531730652,-0.0019041917985305214,-2.213228464126587,0.5368906259536755,10.255096435546875
1785982583.8625326,-0.03460518270730972,0.0015496434643864647,0.011888680048286915,-0.04760094732046127,-0.39843803644180176,9.871835708618164
1785982583.8795326,-0.026529185473918915,0.03206973895430565,-0.004244324285537009,-0.49946582317352295,0.22517330944538239,9.94395637512207
1785982583.9025326,-0.016604408621788025,0.021358685567975044,0.0018569481326267097,0.09590023756027222,-1.1134508848190294,10.180122375488281
1785982583.9205325,-0.010988308116793633,0.03990728780627251,-0.0021218026522547054,-2.191636562347412,0.5610162615776074,9.866806030273438
1785982583.9435258,0.0011174012906849384,0.013440686278045177,0.006271669641137121,-0.14717894792556763,-0.2507079243659961,10.037577629089355
1785982583.960526,-0.0021513106767088175,0.025357650592923164,-0.005158861167728904,-0.32589954137802124,-0.017180144786833506,9.896422386169434
1785982584.0015259,0.0003629373386502266,-0.009577590972185135,-0.006959381978958844,-1.199732780456543,1.1076358556747448,9.804304122924805
1785982584.024526,0.003335075918585062,-0.016154656186699867,0.004902880638837816,-1.199732780456543,1.1076358556747448,9.804304122924805
1785982584.0595188,-0.03584366291761398,-0.012312828563153744,0.0016639964887872353,0.37897998094558716,-0.25070828199386475,9.75495433807373
1785982584.0835187,-0.019472384825348854,-0.0053374506533145905,-0.00013240982661954994,-0.904997706413269,-0.4702862501144397,10.00261116027832
1785982584.1245186,-0.03916884586215019,-0.009325379505753517,-0.0017038151854649175,-1.6102157831192017,0.952110290527345,9.979804039001465
1785982584.165512,-0.03507518768310547,0.01990016549825668,-0.019590761512517933,-0.5652297139167786,-0.2512078285217273,10.073151588439941
1785982584.183512,-0.033341456204652786,0.020835408940911293,-0.004158145748078826,0.7337315678596497,-0.37653103470802185,9.750357627868652
1785982584.2005122,-0.04412634298205376,0.016472967341542244,-0.007479100953787567,-2.494401454925537,0.14455296099186066,9.87928295135498
1785982584.2235122,-0.020348310470581055,-0.003003377933055163,-0.00401556259021163,-0.40551096200942993,-0.10990108549594758,9.855256080627441
1785982584.2405055,-0.009378581307828426,0.014458900317549704,-0.01280774548649788,-0.5593570470809937,0.1417260915040982,10.039228439331055
1785982584.2645054,-0.008237333036959171,0.01880108192563057,-0.010565178468823435,-0.8911085724830627,-0.33859789371490356,9.978180885314941
1785982584.2815053,0.012308725155889988,0.009421876631677149,-0.0135708823800087,-1.0774070024490356,0.48358595371246454,9.66326904296875
1785982584.3045053,0.03021087497472763,-0.002316541504114867,-0.0063738152384757996,-0.5345030426979065,0.10154812037944916,9.942693710327148
1785982584.3225055,0.008999396115541458,0.029238872230052948,-0.010406931862235073,0.3624350428581238,0.2183036059141171,9.858864784240723
1785982584.3454995,-0.005452437326312065,0.02171267382800579,-0.007043024059385064,-0.5702714323997498,-0.3145092725753772,10.030628204345703
1785982584.3634994,0.024452421814203262,0.03200154006481171,-0.012971956282854084,2.3295466899871826,-0.3292633593082416,9.809897422790527
1785982584.3804996,0.032309774309396744,0.03137728571891785,-0.0075761764310300385,-1.7056605815887451,1.0438289642333998,10.396344184875488
1785982584.4034996,0.016297001391649246,0.03015846759080887,-0.011616929434239868,-0.005514681339263916,0.036778807640076905,9.947266578674316
1785982584.4214995,0.0083982078358531,0.058696385473012924,-0.015851270407438285,-1.0740392208099365,0.29438406229019287,10.118550300598145
1785982584.445492,0.01723567396402359,0.042670220136642456,-0.001583875040523713,0.16763441264629364,-0.36478555202484014,9.686192512512207
1785982584.462492,0.011952368542551994,0.034675728529691696,-0.007796814199537043,0.16763441264629364,-0.36478555202484014,9.686192512512207
1785982584.4794922,-0.005159699358046055,0.046171870082616806,-0.009815543889999395,-0.08899374306201935,0.051726594567300097,9.835508346557617
1785982584.520492,0.00604202738031745,0.011888722889125345,-0.018981197848916054,-0.7008191347122192,0.048333138227464,10.043139457702637
1785982584.544485,0.006606751587241888,0.011767266318202017,-0.015304020605981352,-0.8285229802131653,0.3542947769165051,10.10945987701416
1785982584.5614853,0.010970048606395721,0.0358978770673275,-0.02458598278462887,-2.2658209800720215,1.0768711566925062,10.333876609802246
1785982584.6024852,-0.015013769268989563,0.04485068470239639,-0.018132233992218978,-2.2658209800720215,1.0768711566925062,10.333876609802246
1785982584.6194851,-0.032329656183719635,0.031214581802487373,-0.008071439340710643,-0.370741605758667,-0.39687508344650146,9.93865966796875
1785982584.6434786,-0.06562244147062302,0.032856449484825134,-0.011803642846643928,-0.01939752697944641,0.4963428378105176,9.859293937683105
1785982584.6604786,-0.050277501344680786,0.02368215285241604,0.0023457331117242544,-0.39469337463378906,0.2628958821296704,9.82520866394043
1785982584.6834786,-0.07478553056716919,0.015362313017249107,-0.0028474163264036196,0.24613022804260254,0.017212763428689208,9.450953483581543
1785982584.7244785,-0.05840183049440384,0.0046000946313142785,0.0077003943733870974,-0.4866834282875061,0.6763183474540723,9.736115455627441
1785982584.7414722,-0.035186976194381714,-0.002186771016567943,0.020459726452827454,0.6880746483802795,-0.43919944763183477,9.303343772888184
1785982584.7654722,-0.015394393354654312,0.008516634814441206,0.01873195543885231,0.6689707636833191,0.32592320442199824,9.371925354003906
1785982584.7824721,0.0056580486707389355,0.020599596202373508,0.017187751829624173,0.6689707636833191,0.32592320442199824,9.371925354003906
1785982584.8054721,0.05429735779762268,0.016935678198933605,0.022561255842447277,-0.11279941350221634,0.2065992057323468,9.910746574401855
1785982584.823472,0.07703603059053421,0.05137454345822334,0.011261060833930962,-0.32315659523010254,0.6309401988983167,9.57614517211914
1785982584.846465,0.09110197424888611,0.07302802801132202,0.01737891137599944,-1.0258312225341797,0.13049858808517578,9.940692901611328
1785982584.8644652,0.11383052915334702,0.06800512224435806,0.02545762993395328,-1.0133349895477295,0.4607900977134717,10.121420860290527
1785982584.8814652,0.1308782398700714,0.06587399542331696,0.027112929150462144,0.08185377717018127,0.4343090653419507,9.754310607910156
1785982584.8994653,0.1195133700966835,0.08033668249845505,0.022120948880910863,-0.5076823234558105,0.007972881197930564,9.642139434814453
1785982584.9224653,0.1277557760477066,0.08670338243246078,0.02468515560030936,0.9734582901000977,-0.5860431194305408,10.182361602783203
1785982584.9454594,0.1425960659980774,0.08044776320457458,0.013782448135316362,-0.4344642162322998,-0.09569374471902727,9.912677764892578
1785982584.9634593,0.11476943641901016,0.058112986385822296,0.010731121525168412,-0.061837442219257355,0.06924344599247101,10.007932662963867
1785982584.9804592,0.09698060899972916,0.0357464961707592,0.014639442786574359,-0.2452763319015503,0.3639596700668347,9.888587951660156
1785982585.0034592,0.09854630380868912,0.020995972678065303,0.019715961068868634,-0.31496661901474,-0.2221095263957965,9.96401309967041
1785982585.0214593,0.061234280467033386,0.020212754607200623,0.008954332210123537,-0.1424359232187271,-0.13850034773349643,9.654415130615234
1785982585.0444522,0.06199704110622406,0.011216362006962301,0.020192580297589302,1.2120552062988281,0.042883709073067905,9.7722806930542
1785982585.0794523,0.08516380190849304,0.05226587876677513,0.013252975419163697,-0.3708072900772095,0.3283330798149121,10.117293357849121
1785982585.1024523,0.05714801326394081,0.06663009524345398,0.013102767989039412,-0.03683168441057205,-0.0396428406238544,9.74452018737793
1785982585.1204522,0.026814328506588936,0.04922220855951309,0.01665391214191913,0.05906754732131958,0.10667434334755065,9.881950378417969
1785982585.161452,-0.03643298149108887,-0.016268374398350712,0.014397572726011278,-0.8047105073928833,-0.0957614332437503,9.971556663513184
1785982585.184452,-0.06243538483977318,0.0036451150663197062,0.01615850254893303,-0.007591143250465393,0.6343762278556836,9.546503067016602
1785982585.2194521,0.023597123101353645,0.03682396560907364,0.019235240295529362,-0.38212400674819946,-0.15908217430114627,9.729141235351562
1785982585.2834454,0.11645762622356415,0.05701209232211113,0.01541520003229379,0.09463730454444885,-0.23892943561076996,9.871469497680664
1785982585.3004453,0.1310804933309555,0.07370395958423615,0.007190358825027934,-0.3191455602645874,0.5764982104301464,9.415619850158691
1785982585.3244452,0.12206164747476578,0.0823018029332161,0.01442220527678727,-0.7542579174041748,0.3269222974777234,9.925617218017578
1785982585.3414383,0.07939174026250839,0.08849360793828964,0.004407963249832381,0.015433058142662048,-0.2585611343383777,9.875306129455566
1785982585.3654382,0.05034850910305977,0.05243874341249466,0.011436654254794114,0.5361725091934204,-0.45434978604316584,10.317723274230957
1785982585.3824384,0.02010398544371128,0.044555794447660446,0.007307969499379391,0.42052900791168213,-0.10210320353507875,9.901313781738281
1785982585.4234383,-0.05141804367303848,0.01953079178929329,0.006404296960681674,-0.5679711699485779,-0.2539221942424762,9.8175630569458
1785982585.441432,-0.053424179553985596,0.009969677776098251,-0.0004360401653684688,1.075278401374817,-0.6777357459068286,10.214741706848145
1785982585.4634318,-0.06652005016803741,0.013702498748898506,-0.000817488471511753,0.09715928137302399,0.08809347450733306,9.81082534790039
1785982585.481432,-0.08404902368783951,-0.006918247323483227,0.011780890636146069,-0.2554854154586792,0.20878361165523648,9.812296867370605
1785982585.504432,-0.08607592433691025,-0.029812272638082504,0.0013489807024598159,1.5530662536621094,-0.5743049383163439,10.466065406799316
1785982585.5224319,-0.08625508844852448,-0.047408558428287506,0.005776835605502135,-0.19962266087532043,-0.2969781160354602,9.998414993286133
1785982585.5404248,-0.08920298516750336,-0.05050224810838699,0.009023432619869716,-2.0714147090911865,0.25388789176941035,9.647788047790527
1785982585.5624247,-0.08556364476680756,-0.05118400976061821,0.012699190527200706,-0.14212185144424438,0.3582150936126721,9.766797065734863
1785982585.5804248,-0.08267215639352798,-0.044310156255960464,0.007132277823984628,1.004058599472046,-0.24193070828914515,10.514129638671875
1785982585.6034248,-0.07661121338605881,-0.03882388025522232,0.011538303457200532,-0.07150130718946457,-0.14128942787647125,9.877077102661133
1785982585.6214247,-0.048957694321870804,-0.04899238049983978,0.006244341842830187,-0.21843722462654114,-0.1240967512130725,10.043147087097168
1785982585.6444175,-0.038966573774814606,-0.04319442808628082,0.0028574999887496285,-0.46228647232055664,0.05852091312408568,9.878305435180664
1785982585.6624177,-0.00852780882269144,-0.00853086356073618,0.0037512113340199002,-0.3807849884033203,-0.3157439827918994,9.941254615783691
1785982585.6794176,1.180032268166542e-05,0.007988992147147655,0.003111035330221056,-0.4976406693458557,0.560806214809419,9.85388469696045
1785982585.7024176,0.014728742651641369,0.008182881399989128,0.001317579997703432,-0.14877896010875702,-0.014915481209753709,10.091658592224121
1785982585.7434113,0.005407153628766537,-0.012682770378887653,0.0014396763872355238,0.5353848934173584,0.9638150334358226,9.286125183105469
1785982585.7834113,-0.03204738348722458,-0.023551130667328835,-0.003575901500880715,0.6855428218841553,0.10109420120716216,9.901484489440918
1785982585.8014112,-0.039927009493112564,0.00647068116813898,-0.008157572709023952,0.5564317107200623,-0.1939797699451434,10.109946250915527
1785982585.818411,-0.04447133094072342,-0.0026448511052876733,-0.01763087324798107,0.5564317107200623,-0.1939797699451434,10.109946250915527
1785982585.8424044,-0.06799906492233276,-0.0016390162054449335,-0.011970729567110538,-1.3219876289367676,-0.4790799021720874,10.105385780334473
1785982585.8594043,-0.07234042137861252,-0.0020959905814379467,-0.009957087226212025,-1.400065302848816,0.7607103586196912,9.786502838134766
1785982585.9004042,-0.07877860963344574,-0.013039954937994482,-0.011199588887393473,0.007197186350822449,-0.20215821266174194,9.961577415466309
1785982585.9234042,-0.06927751004695892,-0.018038127571344376,-0.003037669928744433,-0.053533993661403656,0.19261153042316556,9.791566848754883
1785982585.9464042,-0.08659166842699051,-0.03297922760248184,-0.005420637782663103,-0.12491701543331146,0.3062705397605908,9.899782180786133
1785982585.9644043,-0.1089954674243927,-0.0372411385178566,-0.0032087152358144474,-0.08070895820856094,0.3461439013481152,9.741921424865723
1785982585.9814043,-0.09405753761529922,-0.06877698749303818,-0.008274343796074382,-1.1882325410842896,-0.020533040165899994,9.727313995361328
1785982586.0044043,-0.09320824593305588,-0.029302988201379776,-0.01089233439415693,-0.23000508546829224,0.08316163718700528,9.712952613830566
1785982586.0224042,-0.08778943121433258,-0.014799518510699274,-0.00826769135892391,0.16808129847049713,-0.139321908354758,10.035177230834961
1785982586.0393977,-0.06433476507663727,-0.011310233734548092,-0.00695473328232765,0.445656955242157,0.85328906774521,9.780557632446289
1785982586.0633976,-0.04360659420490265,-0.013827558606863024,-0.008353165350854395,0.014458835124969482,1.0922324657440197,9.89828109741211
1785982586.0803976,-0.020711127668619156,-0.010102423839271069,0.0007306315819732857,1.8608371019363403,-0.675586402416228,9.987166404724121
1785982586.1033976,-0.004452080465853214,-0.022025074809789658,-0.002628791378810999,0.9091421365737915,0.31022626161575434,9.720063209533691
1785982586.1253977,0.003912265412509441,-0.029802177101373672,0.006560637615621093,0.5878689289093018,0.1837625652551663,9.7996187210083
1785982586.1433911,0.009244768880307674,-0.05518817529082298,0.009076622314751155,-0.3828091621398926,0.1407221108675015,9.804595947265625
1785982586.1613913,0.02061121165752411,-0.03595592454075813,0.014067423529922967,0.33379626274108887,-0.0007303208112704443,9.987955093383789
1785982586.1793911,-0.0004820111207664013,-0.03129139542579651,0.004903348162770275,0.10445491969585419,-0.19141466915607327,10.130424499511719
1785982586.2033913,0.01337288599461317,-0.011932752095162867,0.01143910735845566,-0.393004447221756,0.048248901963235176,10.042052268981934
1785982586.2203913,0.0030105318874120712,-0.010636156424880028,0.0064499475993216055,-0.33819687366485596,-0.09535086899995684,9.726775169372559
1785982586.2623847,0.012163982726633549,0.0022560090292245163,0.010477490723133087,-0.6193269491195679,-0.3602600395679462,9.735634803771973
1785982586.2783847,0.014445197768509388,0.0025963385123759534,0.01974903605878353,-0.02956121414899826,0.31831628084182856,9.709456443786621
1785982586.3023846,0.03137359395623207,0.0051796673797071,0.011490212753415108,-0.020071133971214294,-0.7946001887321459,10.530264854431152
1785982586.3203845,0.05737762525677681,0.020730074495077137,0.017111212015151974,-0.8811723589897156,0.45899105072021606,9.750815391540527
1785982586.3433778,0.058689795434474945,0.0384594202041626,0.010773415677249426,-0.8811723589897156,0.45899105072021606,9.750815391540527
1785982586.360378,0.07756926119327545,0.058129213750362396,0.011749677360057824,-0.8873960971832275,-0.14096555113792297,9.884340286254883
1785982586.383378,0.07218483090400696,0.0737614557147026,0.021971391513943662,0.2378513664007187,0.3645758032798779,9.528197288513184
1785982586.401378,0.07982844114303589,0.06534811109304428,0.02359549514949321,0.042095527052879333,-0.13689805567264435,9.95620346069336
1785982586.4183779,0.09181351959705353,0.07425754517316818,0.02707502618432044,0.042095527052879333,-0.13689805567264435,9.95620346069336
1785982586.442371,0.07098044455051422,0.09523288160562515,0.018481623381376256,0.3722571134567261,-0.624897241592406,10.287152290344238
1785982586.459371,0.07043075561523438,0.1120695024728775,0.019403774291276918,0.3722571134567261,-0.624897241592406,10.287152290344238
1785982586.483371,0.0734023004770279,0.09626715630292892,0.02336810901761054,0.41727179288864136,0.4710131883621228,9.78730583190918
1785982586.506371,0.05667131021618843,0.0751347616314888,0.01993095315992831,-0.31787461042404175,0.6631100177764905,9.884870529174805
1785982586.523371,0.08764947205781937,0.06193480268120766,0.017229571938514703,0.18521727621555328,1.0057611465454113,9.522629737854004
1785982586.5473638,0.12122774869203568,0.04401211813092232,0.0069913440383970685,0.4165242910385132,0.08011461794376493,9.74787425994873
1785982586.558364,0.13164669275283813,0.01994728669524193,0.01710967160761356,0.09203928709030151,0.4630829095840466,9.727204322814941
1785982586.581364,0.15151844918727875,0.04225997254252434,-0.0029744829516857915,-0.2800195813179016,-1.0223249197006212,10.178900718688965
1785982586.604364,0.16384616494178772,0.03627633675932884,-0.0033899722620844884,-0.07215364277362823,-0.10310821980237841,9.800155639648438
1785982586.6223638,0.1787598580121994,0.03267490863800049,-0.0038683055900037328,-0.12157654762268066,0.3769509196281445,9.670188903808594
1785982586.645357,0.19329960644245148,0.03193492442369461,-0.009510523639619354,0.2556830644607544,-0.3685830533504474,9.914591789245605
1785982586.663357,0.1898360550403595,0.032452359795570374,-0.0012387497117742935,-0.16823486983776093,-0.12379471957683442,9.803313255310059
1785982586.680357,0.1606987863779068,0.04920483008027077,-0.007933398708701139,-0.07387889921665192,0.2709481716156018,9.797414779663086
1785982586.6983569,0.1542813777923584,0.04837721958756447,-0.0001324409095104843,0.08985134959220886,-0.15222552418708682,9.802338600158691
1785982586.7213569,0.09812864661216736,0.05483593791723251,-0.0005486963782459565,-0.5558793544769287,0.524081885814668,9.811769485473633
1785982586.745357,0.06876818835735321,0.07919987291097641,-0.005446176510304222,0.7502851486206055,-0.26443532109260437,9.955291748046875
1785982586.762357,0.04049171879887581,0.09353996068239212,-0.0012360918335616704,0.44786280393600464,-0.44712710380554077,9.92477798461914
1785982586.780357,0.011257526464760303,0.07846760004758835,-0.007397807668894539,0.18011607229709625,1.0274111032485973,9.188822746276855
1785982586.8203568,0.0003574974834918976,0.05718652531504631,-0.014566109515726573,0.2772560119628906,-0.032106339931486816,9.943998336791992
1785982586.8433504,0.017470020800828934,0.054565686732530594,-0.024106830358505256,-0.13748252391815186,0.5383256673812878,9.793729782104492
1785982586.8613505,0.02746758610010147,0.038229141384363174,-0.012207239866256719,-0.04584747552871704,0.6509647369384778,9.560357093811035
1785982586.8783505,0.006910444237291813,0.03036563284695148,-0.020573129877448085,-0.3231153190135956,0.5442463755607617,9.803340911865234
1785982586.9023504,0.0035970378667116165,0.03558788076043129,-0.01634817570447922,-0.05462426692247391,0.09509898722171904,9.8239164352417
1785982586.9253504,0.01522947195917368,0.022010395303368565,-0.024240547791123394,-0.1590641289949417,0.6971822381019604,10.173117637634277
1785982586.9433439,0.014361769892275333,0.005309356842190025,-0.022574516013264656,-0.1590641289949417,0.6971822381019604,10.173117637634277
1785982586.9603438,0.019860491156578064,0.026096455752849575,-0.034087274223566055,-0.7812307476997375,1.0390827655792247,9.851418495178223
1785982586.9833438,0.0391981415450573,0.014647942036390301,-0.024957144632935527,-0.7812307476997375,1.0390827655792247,9.851418495178223
1785982587.001344,0.04092610627412796,-0.0016108716372400553,-0.02471558190882206,-0.36594849824905396,0.35561650991439936,9.596391677856445
1785982587.024344,0.03552846238017082,-0.007018956355750564,-0.029461702331900597,0.22779060900211334,0.282619893550874,9.926701545715332
1785982587.0423372,0.05114883929491043,-0.005771243013441566,-0.028112558647990227,0.17849133908748627,0.09258173406124233,9.680560111999512
1785982587.0593371,0.05115677788853645,-0.009546307846903804,-0.03074939362704754,0.5638880133628845,-0.41886126995086553,9.591254234313965
1785982587.0833373,0.056652214378118515,-0.011773627251386644,-0.018296854570508003,0.42881375551223755,1.0298800468444835,9.830543518066406
1785982587.1003373,0.06568101793527603,-0.01310075540095568,-0.03496440500020981,-0.9222277998924255,-0.6274945735931384,10.118426322937012
1785982587.1233373,0.060078151524066925,0.009705449454486367,-0.022153418511152267,-0.13399475812911987,0.1410350054502499,9.67420482635498
1785982587.1403303,0.05250219255685806,0.016436304897069928,-0.024312889203429226,-0.5965047478675842,0.7027546167373669,9.82413387298584
1785982587.1633303,0.08050789684057236,0.028475860133767125,-0.01858971454203129,-0.23255112767219543,-0.004359617829321615,9.796384811401367
1785982587.1813302,0.05945201963186264,0.06677240878343582,-0.012163302861154088,-0.43385225534439087,-0.00295342504978061,9.710426330566406
1785982587.2043302,0.062436237931251526,0.06919968873262405,-0.0053027481772005645,-0.10233745723962784,0.12479780614376189,9.848275184631348
1785982587.2223303,0.0615648478269577,0.08131434768438339,-0.0065446812659502125,-0.2807483673095703,0.182453051209451,9.967769622802734
1785982587.2453234,0.05660838633775711,0.0922100618481636,-0.006156387738883507,-0.3448425829410553,0.4718815684318554,9.624672889709473
1785982587.2633233,0.04712395370006561,0.11924699693918228,-0.0028345549944788365,-0.7283995151519775,0.3170633912086499,9.821598052978516
1785982587.2803235,0.06378144025802612,0.12571527063846588,-0.004637619946151987,-0.34766027331352234,0.6207801699638379,9.68543815612793
1785982587.3043234,0.06874392926692963,0.1070873811841011,-0.0044858031906187664,0.39788931608200073,0.27101850509643677,10.062679290771484
1785982587.3213234,0.06453920155763626,0.08653043210506439,-0.007920573465526114,-0.10539254546165466,-0.881141662597655,10.224016189575195
1785982587.344316,0.05553986504673958,0.06932830065488815,-0.006487374193966397,-0.9705471396446228,0.8319094181060802,9.475654602050781
1785982587.361316,0.04810689389705658,0.05061858147382736,-0.003444639965891844,-0.39455804228782654,0.08694459497928739,9.800732612609863
1785982587.3793159,0.04275668039917946,0.035078179091215134,-0.017417993396520618,-0.22545495629310608,0.32400774955749634,9.767857551574707
1785982587.4023159,0.058496199548244476,0.015188483521342276,-0.01093027275055647,0.35287362337112427,-0.10045570135116454,10.03302001953125
1785982587.420316,0.03246449679136276,0.012253101915121077,-0.018014026805758476,-1.562310814857483,0.44811958074569824,9.881662368774414
1785982587.4433093,0.01314461138099432,0.003669112455099819,-0.016649864614009857,-0.25716304779052734,-0.18730005621909973,9.922477722167969
1785982587.4613092,0.001252898946404457,-0.0109404968097806,-0.013318534940481184,-1.1547491550445557,-0.38615491986274597,10.08873176574707
1785982587.4783094,0.008654098957777023,-0.019628791138529778,-0.003596049733459947,-0.2327728271484375,0.843453109264375,9.702536582946777
1785982587.5023093,0.0028274827636778355,-0.004480513744056226,-0.008562751114368439,-1.7033286094665527,-0.37246936559677,10.101463317871094
1785982587.5253093,-0.0005988585762679577,0.009623583406209944,-0.008590189740061762,0.20890945196151733,0.6405283808708203,9.646136283874512
1785982587.5423021,0.007500238250941038,-0.006966820452362299,0.00020556669915095056,-0.04686359316110611,0.305274009704591,9.703916549682617
1785982587.5833023,-0.01439560204744339,-0.01568363793194294,-0.0006435133400373141,-2.078810453414917,1.26261866092682,9.731142044067383
1785982587.6233022,-0.011422684416174889,-0.01440335437655449,-0.00012741732643917027,-0.4142627716064453,0.11196599900722624,9.907115936279297
1785982587.6412952,-0.017002716660499573,-0.021325992420315742,0.003908909391611817,-0.6218973994255066,0.30294406414032105,10.037158966064453
1785982587.6642952,-0.010195137932896614,-0.01475169323384762,-0.00861717853695154,0.3979068398475647,1.4173480272293102,9.531787872314453
1785982587.7052953,-0.01476115919649601,-0.0342283770442009,-0.006942281499505039,-0.1446532905101776,0.5314909219741834,9.883042335510254
1785982587.7632885,-0.02525443397462368,-0.02870137058198452,-0.005244813393801447,-0.7314561009407043,0.037166371941567675,9.881118774414062
1785982587.7812886,-0.027355512604117393,-0.019485240802168846,-0.010825748555362223,-0.3472694456577301,0.4739481806755078,9.812726974487305
1785982587.8042886,-0.002371224109083414,-0.005763181019574405,-0.009949477389454842,-0.891782820224762,0.7102900743484509,9.679580688476562
1785982587.8452818,0.017169101163744926,0.022675940766930577,-0.01577875949442387,-0.5774285793304443,0.5992917418479932,9.591900825500488
1785982587.862282,0.03292585909366608,0.030460761860013008,-0.013527495786547664,-0.5774285793304443,0.5992917418479932,9.591900825500488
1785982587.8852818,0.023640653118491173,0.018769852817058563,-0.00886447820812464,-0.24817168712615967,-0.10051070153713107,9.743525505065918
1785982587.903282,0.010713180527091026,0.0409201979637146,-0.025887962430715564,0.32921910285949707,-0.08272310346364857,9.661585807800293
1785982587.920282,0.010895175859332085,0.05677225813269615,-0.019884897395968444,-0.3888508677482605,0.19923965632915616,9.76003646850586
1785982587.944275,-0.009085772559046745,0.04174329340457916,-0.019830705597996715,1.2390525341033936,0.2990922927856457,9.482157707214355
1785982587.961275,-0.04442561790347099,0.020863624289631844,-0.011707162484526636,-1.594712734222412,0.637340843677522,10.013504028320312
1785982587.979275,-0.05662471801042557,0.016666093841195103,-0.02016946487128735,1.4661993980407715,-0.7554113268852222,9.564141273498535
1785982588.002275,-0.07044076174497604,0.000772345345467328,-0.007849774323403835,-0.2972235083580017,0.4858173727989209,9.751781463623047
1785982588.019275,-0.06788605451583862,0.011901151388883587,-0.023838073015213013,-0.2592587172985077,0.5823991894721997,9.731691360473633
1785982588.0432682,-0.06242922320961952,-0.008991559967398645,-0.010173315182328222,0.32404670119285583,0.2920879721641552,9.560379028320312
1785982588.0602682,-0.055283304303884506,-0.012707222253084184,-0.017341405153274536,0.32404670119285583,0.2920879721641552,9.560379028320312
1785982588.084268,-0.029207473620772362,-0.04982181265950203,-0.007690885104238981,-2.805156707763672,0.3311353325843824,10.286849021911621
1785982588.101268,-0.0029362814966589212,-0.04324379190802574,-0.005074078217148776,0.6693117022514343,-0.09931240975856666,9.402458190917969
1785982588.125268,-0.004749523941427469,-0.02584877982735634,0.0015565955545753273,0.5545015931129456,0.6043856739997876,10.30514144897461
1785982588.1422617,0.012100445106625557,-0.01719721220433712,-0.0004041167558170834,-0.3350222706794739,-0.0057953447103488214,9.920696258544922
1785982588.1822617,0.040770865976810455,0.00669649662449956,0.005992332939058541,-0.11545906960964203,0.8371416926383984,9.831921577453613
1785982588.2002616,0.049509644508361816,0.012211501598358156,0.007382668089121578,-0.3914482295513153,0.2980478405952466,10.082003593444824
1785982588.2232616,0.043528567999601364,0.025320934131741527,0.01449243817478418,0.9680327773094177,0.12235985696315882,9.538103103637695
1785982588.2412553,0.051344629377126694,0.03750623017549515,0.012424388900399203,-1.7558724880218506,0.07664875686168789,9.68310260772705
1785982588.2582552,0.030225547030568123,0.06173510104417801,0.023099435493350022,-0.3159611225128174,0.8076663017272961,9.70824146270752
1785982588.2822554,0.03826695680618286,0.05986778065562248,0.016980150714516633,-1.4912385940551758,0.9163400530815137,9.559877395629883
1785982588.3222554,-0.0006819441914558411,0.09326855838298798,0.023920347914099683,-0.19205757975578308,-0.12170667946338534,9.788240432739258
1785982588.3402486,0.006147097330540419,0.0873270332813263,0.017342358827590932,-0.1873849332332611,0.3004810214042676,9.949604988098145
1785982588.3632486,6.436975672841072e-05,0.08669339120388031,0.027247754856944074,-0.4769769012928009,0.2976140379905713,9.977252006530762
1785982588.3812487,-0.005179550964385271,0.07902754098176956,0.017674727365374555,-0.4769769012928009,0.2976140379905713,9.977252006530762
1785982588.4212487,-0.012120412662625313,0.04127974063158035,0.017080007120966908,0.07299958169460297,-0.7314802408218372,9.699216842651367
1785982588.444241,-0.024065764620900154,0.006762716919183734,0.023350901901721954,-0.6534750461578369,0.4426833987236035,9.767356872558594
1785982588.462241,-0.05517804995179176,0.02004833705723286,0.015849236398935315,0.7095946669578552,-0.07598818838596222,9.941487312316895
1785982588.479241,-0.04048865661025047,0.01796852983534336,0.007763463538140056,-0.7326932549476624,0.5885685086250317,9.85796070098877
1785982588.503241,-0.04500019550323486,-0.003436208935454486,0.013838359154760838,-0.47777730226516724,0.4489473700523388,9.716326713562012
1785982588.520241,-0.039573851972818375,-0.019471921026706696,0.013141156174242498,-0.9219017624855042,-0.08274805545806764,9.857993125915527
1785982588.5442336,-0.016735203564167023,-0.02026162482798099,0.020781978964805606,-0.37839826941490173,0.5514861941337598,9.623632431030273
1785982588.5612335,-0.0329388752579689,-0.019391061738133427,0.014393093995749952,-0.0995069146156311,0.2976216375827801,9.55265998840332
1785982588.5842335,-0.02304944023489952,-0.024422790855169293,0.01457435451447964,-0.6584932804107666,0.1604340672492993,9.738868713378906
1785982588.6022336,-0.011070004664361477,-0.027383744716644287,0.008446456864476207,-0.05437307059764862,-0.11539173126220584,9.708417892456055
1785982588.6422336,-0.01121105719357729,-0.004192839376628398,0.010469222441315651,0.71929532289505,0.757854223251344,9.721367835998535
1785982588.6602335,-0.0008019823580980301,-0.021825477480888363,0.015019462443888191,0.11761938035488129,0.3454599976539624,9.955438613891602
1785982588.6832335,-0.006997864227741957,-0.019797923043370247,0.0032449855934828546,0.0037433356046676636,0.09992942214012265,9.76266860961914
1785982588.7012336,-0.024775158613920212,-0.03517763316631317,0.006567519158124928,-0.6238746047019958,0.13163775205612302,9.632277488708496
1785982588.7242336,-0.050785645842552185,-0.018392227590084076,0.007510173134505751,0.9321607947349548,0.4052566289901745,9.647173881530762
1785982588.7822266,-0.07295498251914978,-0.014925964176654816,0.005443160422146322,0.1931433528661728,0.8855873942375195,9.606225967407227
1785982588.8052266,-0.057763487100601196,-0.014502206817269325,0.0007928754785098153,-0.5097770690917969,0.5780919194221509,9.52481746673584
1785982588.8232267,-0.05675656720995903,-0.037376768887043,0.001212980598211293,-0.43698209524154663,0.28277730941772583,9.79387378692627
1785982588.8412197,-0.05917029455304146,-0.05968303605914116,0.001792710856534548,-0.5429431796073914,-0.7504195570945728,10.372687339782715
1785982588.8642197,-0.056097596883773804,-0.05501644313335419,-6.135842704679143e-05,-0.5648303627967834,0.6131494045257581,9.693692207336426
1785982588.8812196,-0.05322656407952309,-0.03324062377214432,0.006456147879362111,-0.9458419680595398,0.5537789463996899,9.79128646850586
1785982588.9052198,-0.04502612724900246,-0.02345636859536171,0.006270838435739281,0.4160073399543762,0.8255099654197705,9.541666984558105
1785982588.9222198,-0.05058002471923828,-0.008174908347427845,-0.0027336261700838796,-0.27659621834754944,-0.0006925761699664613,9.717341423034668
1785982588.945213,-0.04124033823609352,-0.003982068970799446,0.0006159014883451168,-0.7568632364273071,0.7521402239799512,9.590283393859863
1785982588.963213,-0.04539705440402031,0.020074179396033287,-0.002741184318438175,-1.4823200702667236,0.5806756019592297,9.721208572387695
1785982588.9802132,-0.03070421889424324,0.0235917828977108,0.003401841502636668,0.7393431663513184,0.18464574217796448,9.901443481445312
1785982589.0032132,-0.027323849499225616,0.0069882250390946865,0.0016346557531505814,0.24432067573070526,1.7851591111439702e-05,9.882129669189453
1785982589.021213,-0.020110998302698135,-0.0325978547334671,0.012450290843844417,-0.08213505893945694,0.39340460300445673,9.489392280578613
1785982589.0442054,-0.03200412541627884,-0.021587861701846123,0.0041103535331785705,-0.4785137176513672,1.6436772346496593,9.370081901550293
1785982589.0792053,-0.04511158913373947,0.013027703389525414,0.005379438400268553,-1.7083967924118042,0.7313696742057813,9.770244598388672
1785982589.1022053,-0.021856915205717087,0.0009849315974861386,0.0021799341775476933,-0.452265202999115,0.29166936874389765,9.698999404907227
1785982589.1202054,-0.0242195725440979,0.014703017659485342,0.00806831195950508,-0.1883322298526764,0.43729525804519775,9.864622116088867
1785982589.1431983,-0.023279819637537003,0.004381738603115081,-0.004628504160791636,-0.16188617050647736,0.4121990799903882,9.8933687210083
1785982589.1611981,-0.014254237525165081,-0.014509901404380798,0.00049831793876365,-0.414883017539978,0.2931589782238018,9.475125312805176
1785982589.1841981,-0.024293705821037292,-0.008679667487740517,-0.004238379187881946,-0.26349076628685,0.018097475171090383,9.890192031860352
1785982589.201198,-0.011104553937911987,-0.011440533213317394,-0.0010218466632068144,-1.260379672050476,0.9083330035209668,9.902311325073242
1785982589.2191982,0.0021836040541529655,-0.0334048755466938,-0.01434659585356712,0.46184414625167847,0.2957970499992383,9.854205131530762
1785982589.259191,-0.029304146766662598,-0.010410703718662262,-0.0024061922449618565,-0.37345990538597107,0.5196347236633313,9.655030250549316
1785982589.283191,-0.01968875713646412,-0.02587646245956421,-0.0018839844269677964,-0.3605644106864929,0.5239848494529736,9.5991849899292
1785982589.300191,-0.014838984236121178,-0.03281006962060928,-0.004548172466456886,-0.3605644106864929,0.5239848494529736,9.5991849899292
1785982589.359184,0.00020316150039434433,-0.008749823085963726,0.003001681761816145,-0.7146206498146057,0.8182539939880383,9.568385124206543
1785982589.382184,-0.004209684673696756,0.015391647815704346,0.0049515273422002775,-1.5354820489883423,-0.6277026534080493,9.723732948303223
1785982589.446177,-0.026432067155838013,-0.029396628960967064,0.010176188312470916,-0.6572708487510681,0.6409142017364514,9.773589134216309
1785982589.463177,-0.0274319127202034,-0.01725940778851509,0.006442313548177482,-1.222226858139038,0.5953789949417126,9.561367988586426
1785982589.4811769,-0.006972865667194128,-0.00588569324463606,-0.004718766547739505,-0.9835762977600098,0.9968294501304638,9.392688751220703
1785982589.5041769,-0.0040777986869215965,0.00441984087228775,0.0034610719885677095,-2.1510887145996094,-0.43108260631561157,9.8829984664917
1785982589.522177,0.022187398746609688,0.014775861985981464,0.005033933557569979,-0.35324785113334656,0.8837614655494701,9.45263385772705
1785982589.5451696,0.03653968870639801,0.017659587785601616,0.006178771611303089,-0.33447691798210144,-0.04575914144515868,10.068521499633789
1785982589.5621696,0.01802588813006878,0.019063858315348625,0.00631659338250756,-1.4223934412002563,0.548218905925752,9.551974296569824
1785982589.5801694,0.004994241986423731,-0.014003698714077471,0.007661445997655393,-0.5751405954360962,0.09296733140945554,9.689934730529785
1785982589.6031694,0.00774355186149478,-0.003968770150095224,-0.0006227432168088849,-2.4930620193481445,1.3786888122558605,9.549373626708984
1785982589.6211696,-0.01740439422428608,-0.0021670991554856283,0.01457586046308279,0.5278798341751099,-0.29558759927749517,9.660423278808594
