timestamp,angular_velocity.x,angular_velocity.y,angular_velocity.z,linear_acceleration.x,linear_acceleration.y,linear_acceleration.z
1785985334.6922355,0.004218560643494129,0.0004920873325318096,-0.0014397609047591686,0.18725019693374634,-0.03956781327724337,9.785221099853516
1785985334.7124546,0.002714470960199833,0.0026148855686187744,-0.0008241140167228881,0.19130009412765503,-0.0361214280128467,9.829249382019043
1785985334.7312262,0.001739424653351307,-0.0017808916745707393,0.00035355420550331495,0.2015351951122284,-0.015104733407496206,9.805907249450684
1785985334.7539577,0.0032281489111483097,0.0021760426461696625,-0.0006528854719363155,0.17438966035842896,-0.029305383563040483,9.836984634399414
1785985334.7734907,-0.0016869413666427135,-0.0018022878793999553,-0.0002986770705319939,0.1916331946849823,-0.04693944752216219,9.814438819885254
1785985334.7922275,-0.003687674179673195,-5.344394594430974e-05,-0.004141015000641346,0.17974257469177246,-0.0521441251039493,9.796651840209961
1785985334.8187635,-0.000689149834215641,0.0009943556506186724,-0.00048597384011372935,0.19127804040908813,-0.04646678268909334,9.795697212219238
1785985334.83122,-0.0032497947104275227,0.001208486035466194,-0.0010290415957570078,0.17056027054786682,-0.07619456946849702,9.804197311401367
1785985334.8526816,0.005633029155433178,0.0005740126362070442,0.0009744816925376653,0.20041987299919128,-0.06340305507182956,9.796123504638672
1785985334.8723483,-0.0027658063918352127,0.0033481521531939507,0.00013173191109672148,0.182905375957489,-0.050172269344328634,9.81161880493164
1785985334.8905683,0.0015832651406526566,-0.001429079566150904,-0.002141757868230343,0.1790914535522461,-0.015411213040350666,9.8118314743042
1785985334.9127586,0.0027216263115406036,-7.511745207011697e-05,0.0002184240729548037,0.1916591227054596,-0.027095690369604814,9.831583976745605
1785985334.9304318,0.0009543774649500847,0.0004048540722578764,-0.00015858857659623032,0.19803836941719055,-0.010130673646925678,9.815239906311035
1785985334.9510248,-0.004176175221800804,-0.001116998959332705,-0.0034743286669254303,0.17064914107322693,-0.02174459397792696,9.8118257522583
1785985334.972313,0.004109582863748074,-0.0039664264768362045,0.00032183609437197496,0.18919014930725098,-0.033555060625075094,9.8230562210083
1785985334.991508,0.001026707235723734,0.00034645001869648695,-0.0001990576856769622,0.1959238350391388,-0.01851646602153658,9.804426193237305
1785985335.0111966,-0.002577261533588171,0.0002820946974679826,-0.0012819187249988317,0.1781948208808899,-0.037013620138167135,9.80161190032959
1785985335.030394,-0.0017027242574840784,0.000535238301381469,0.0014782487414777279,0.17706695199012756,-0.020763918757437463,9.783320426940918
1785985335.0510943,0.001297083217650652,0.0024371813051402564,-0.001966905547305942,0.18388506770133972,-0.003539867699145073,9.78271198272705
1785985335.0721884,-5.729799158871174e-05,0.0006920722080394627,0.0005229872767813503,0.2066228687763214,-0.013329029083250753,9.803053855895996
1785985335.0905035,-0.0014577885158360004,0.0014181094011291862,0.0007644126308150587,0.20511698722839355,-0.019768506288527242,9.803378105163574
1785985335.112307,-0.00026181619614362717,-0.003234386909753084,-0.00013883790234103758,0.17746597528457642,-0.025313951075075856,9.809684753417969
1785985335.1305053,-0.003578438889235258,-0.0016282874858006835,0.0006444967584684493,0.17693477869033813,0.015421345829964885,9.801775932312012
1785985335.1536062,-0.0015711216256022453,0.0008668123045936228,0.0006852303631603717,0.19470348954200745,0.00035403668880583036,9.830512046813965
1785985335.172293,0.003219280857592821,-0.00040768063627183416,0.0017198750283569098,0.1902226209640503,-0.026058197021483175,9.80105972290039
1785985335.19033,0.004186430014669895,-0.0010715585667639969,0.0010199809912592175,0.2096121907234192,0.006269343197346936,9.817042350769043
1785985335.2105744,-0.005064382217824459,0.003079914953559637,-0.0016758581623435025,0.178561270236969,-0.015458658337591876,9.818284034729004
1785985335.2305632,-0.0065480787307024,0.0018591400003060699,-9.280914673581742e-05,0.18483564257621765,-0.018157333135603658,9.814704895019531
1785985335.25397,-0.0015520027372986078,-0.0027657062746584415,0.0011121009010821585,0.1670636385679245,-0.02425100654363512,9.809927940368652
1785985335.2723436,-0.003123705042526126,-0.00037106618401594476,-0.0015126614598557353,0.1652737706899643,-0.015446834266184562,9.788734436035156
1785985335.2906473,0.004341517575085163,-0.0020479075610637665,-0.00020095256331842368,0.19076523184776306,-0.04848529398441195,9.77814769744873
1785985335.3122098,0.00035897339694201946,0.0010147375287488103,0.0008427934371866285,0.15328414738178253,-0.02231311798095583,9.801037788391113
1785985335.3316884,-0.0026743861380964518,0.0014722320483997466,0.0008914351346902547,0.16570129990577698,-0.038086533546446553,9.789090156555176
1785985335.3509088,-0.0015042778104543686,-0.0014073499478399751,0.0015009671915322544,0.21466298401355743,-0.007738821208475818,9.813323020935059
1785985335.3711011,-0.003032417269423604,-0.0014603640884160995,-0.000330003153067082,0.19256363809108734,-0.06124083697795748,9.806147575378418
1785985335.3922243,0.00011263159103691578,-0.0010435599833726883,0.0007430684636346997,0.19849516451358795,-0.0395115464925754,9.79089641571045
1785985335.4122384,-0.0067298514768481255,0.00012817789684049774,-0.0009599036420695484,0.1749623566865921,-0.043640315532683126,9.826985359191895
1785985335.4311585,0.00029521132819354534,-0.0008765123784542083,0.0004620287800207735,0.16760723292827606,-0.014365114271639579,9.788379669189453
1785985335.4529936,-0.006442352198064327,-0.001238551223650575,-0.002043663989752531,0.1692187339067459,-0.01975899189710497,9.803282737731934
1785985335.471594,-0.0061311740428209305,0.0006873138481751085,0.0008937672828324138,0.17470526695251465,-0.051412269473074666,9.80189037322998
1785985335.4910042,-0.0002890846226364374,0.001469608279876411,-0.0004052713629789652,0.15634989738464355,-0.016506873071192498,9.782933235168457
1785985335.5103848,0.0023713840637356043,0.00234765512868762,0.0001473454321967435,0.1672416776418686,-0.005753532052038901,9.787294387817383
1785985335.532605,-0.003044848097488284,-0.0001550023735035214,-0.002589921001344919,0.16778625547885895,-0.030000552535055864,9.836324691772461
1785985335.5525203,-0.006008417345583439,0.0011012266622856255,-0.0036362409591674805,0.21660394966602325,-0.041047438979147664,9.782732963562012
1785985335.5713124,0.004155810922384262,-0.0007928714621812103,0.0016270193737000227,0.18178826570510864,-0.037580832839010946,9.81136417388916
1785985335.5903811,-0.008288862183690071,-0.0005779389757663014,-0.0020794235169887543,0.16185279190540314,-0.09229087829589724,9.794485092163086
1785985335.6537669,-0.005269039422273636,0.003914529923349619,-0.0006174769368954007,0.1909460872411728,-0.02909637987613558,9.801487922668457
1785985335.6701648,-0.00025178492069244385,-0.0012089260853826997,0.0017793654697015884,0.18108902871608734,-0.01912175863981127,9.813653945922852
1785985335.689381,-0.004013489931821823,-0.004333038814365864,-2.7361369575373296e-05,0.1759483814239502,-0.04902306199073671,9.8394193649292
1785985335.7110872,-0.004679648205637932,1.6526522813365e-05,0.001109560951590538,0.18232695758342743,-0.038433775305746785,9.815133094787598
1785985335.7299912,-0.004254513420164585,-0.0006737995427101842,0.007415585219860077,0.03862888738512993,-0.07745441794395326,9.814282417297363
1785985335.7525911,-0.006947265937924385,0.0007160872919485001,0.023377692326903343,0.3581725060939789,0.19837093353271606,9.900229454040527
1785985335.7712636,0.006279532797634602,1.6112549928946616e-05,-0.013624816201627254,-0.11869370937347412,-0.2551571726798999,9.969587326049805
1785985335.7903457,-0.0055534932762384415,0.0002638079167809298,-0.032474976032972336,0.289999395608902,0.027908049523831593,9.638520240783691
1785985335.8122869,-0.017610786482691765,0.0018157480517402389,0.0791035071015358,0.22201086580753326,0.023336641490460636,9.742767333984375
1785985335.8307972,0.015012768097221851,-0.0016223572893068272,-0.06343545764684677,0.01305318996310234,-0.22080497443675876,9.794596672058105
1785985335.8532002,-0.0020412674639374018,0.0005284165963530556,0.01257559098303318,0.35679179430007935,0.07382740825414778,9.874515533447266
1785985335.8706057,-0.007928824983537197,0.0018123451154679086,0.02141323685646057,0.18779341876506805,-0.1226736456155765,9.725269317626953
1785985335.8898346,0.012125351466238499,-0.003887776285409931,-0.027217207476496696,0.27908918261528015,-0.046944931149481534,9.771595001220703
1785985335.9214551,-0.006706602871417999,0.0034487040247768164,0.0007990954909473653,0.1413613259792328,-0.13752998411655307,9.808367729187012
1785985335.9303522,-0.0016968038398772478,0.00033058758708648205,-0.014620628207921982,0.18153530359268188,0.028150826692582388,9.886059761047363
1785985335.953102,0.001025800360366702,5.2201998187229884e-05,0.006927706766873598,0.21910478174686432,0.02917015552520873,9.892343521118164
1785985335.9694328,0.0011706461664289236,0.0007658741669729347,-0.00466132303699851,0.1665973961353302,-0.010864265263079402,9.753504753112793
1785985335.9906106,-0.0026523813139647245,0.0012183027574792509,0.0036231314297765493,0.1462344080209732,0.008791863918305633,9.717628479003906
1785985336.0118089,-0.01236741617321968,0.0007777244318276642,-0.0018761692335829139,0.10460904240608215,0.05793467909097791,9.764893531799316
1785985336.0309498,-0.004333167336881161,-0.0035764421336352825,-0.00021703790116589473,0.15465250611305237,0.008903786540032628,9.754890441894531
1785985336.053122,-0.0024309258442372084,0.004387144464999438,0.0038810383994132276,0.2248823493719101,-0.030657701194285136,9.888348579406738
1785985336.069989,0.00043509178794920444,0.0012462993618100875,-0.005045554134994745,0.22064565122127533,-0.003777191042898883,9.818378448486328
1785985336.0906627,0.0015507827047258615,-0.0036972039379179478,5.957701068837241e-05,0.20110897719860077,-0.08168594539165375,9.96021842956543
1785985336.1096811,0.002940983744338155,-0.003493005875498057,-0.002784643322229385,0.21680347621440887,-0.03125115483999133,9.75318431854248
1785985336.1289911,-0.0006347778253257275,0.0017019070219248535,0.0018808813765645025,0.2783045470714569,0.010228380560876145,9.841890335083008
1785985336.1522076,0.0014510310720652342,0.0018717820057645436,-0.0040675802156329155,0.2669883072376251,0.019345439970494514,9.773277282714844
1785985336.170552,0.0028426845092326403,-0.0007866509258747099,0.001508404966443777,0.21374139189720154,0.03182368353009345,9.84112548828125
1785985336.1903942,-0.0008662512991577387,-0.0004131505556870255,-0.002542543690651655,0.1566174477338791,0.038467623293401004,9.763992309570312
1785985336.211463,-0.002717836992815137,0.001942782779224217,-0.0005094002117402854,0.17615649104118347,-0.013768061995505065,9.965544700622559
1785985336.2294655,0.0006721008103340864,-0.0009351915214210748,0.0008169276989065112,0.2764320373535156,-0.044145151972769484,9.870800018310547
1785985336.2524087,0.0030489631462842226,-0.0011377222836017609,0.000545359856914729,0.22353719174861908,-0.012890629470347153,9.848848342895508
1785985336.2709417,0.0004294558893889189,-0.0037280158139765263,-0.0006694227340631183,0.17918173968791962,0.003833979368211026,9.693264961242676
1785985336.290198,-0.00012887315824627876,-0.0005688865203410389,-0.0016499350313097239,0.12539874017238617,-0.015687361359595052,9.790929794311523
1785985336.309832,0.0032657186966389418,0.004586526192724706,0.003878201590850949,0.17280837893486023,0.06414492428302884,9.739356994628906
1785985336.3296504,0.0017551754135638475,0.002345320302993059,0.0011469789315015075,0.20260106027126312,-0.014836572110651723,9.80616283416748
1785985336.3525443,-0.0017562841530889273,-0.0022450545802712436,0.002101643010973931,0.15683695673942566,0.05274974554777267,9.942084312438965
1785985336.3703673,-0.009381001815199852,0.0010782581521198153,-0.0002752178697846831,0.1853792667388916,-0.0008238777518260445,9.761652946472168
1785985336.3901465,-0.004399488680064678,4.13483940064889e-06,-0.001471853582188487,0.16359184682369232,-0.01567871868610262,9.791345596313477
1785985336.4100811,-0.0005807711277157068,-0.002470275852829218,0.0004777404246851805,0.19157280027866364,-0.037120729684828505,9.847769737243652
1785985336.4305692,0.003084043739363551,-0.0011546190362423656,0.0011352834990248086,0.127828910946846,0.02065320312976957,9.78357219696045
1785985336.4529526,-0.009087399579584599,-0.0003176447935402392,0.0007691142382100224,0.18304169178009033,-0.013249963521956192,9.845037460327148
1785985336.470467,0.001393790589645505,0.002747113350778818,3.382314753252979e-05,0.21144074201583862,-0.052887141704558126,9.812524795532227
1785985336.48907,-0.00307938433252275,0.0012664459645748138,-0.0003104343195445837,0.27596819400787354,0.01366488635540129,9.823540687561035
1785985336.509274,-0.005126842297613621,0.0014081333065405488,0.00011387637641746533,0.17295290529727936,0.006152600049973739,9.836408615112305
1785985336.5300734,0.003342933254316449,-0.00010068342089652992,0.0018633927684277296,0.2701874375343323,0.04332257807254912,9.867115020751953
1785985336.5524507,-0.0024377054069191217,-0.0029340209439396863,-0.0018512527458369728,0.18254590034484863,0.03371275216341139,9.826249122619629
1785985336.571449,-0.00823157373815775,-0.0005406499840319156,0.0007694485248066486,0.12431603670120239,0.04313192144036413,9.807520866394043
1785985336.5903897,0.00595790334045887,0.003630219958722592,0.0021164359059184785,0.16142264008522034,-0.026110231876372094,9.765357971191406
1785985336.6110418,-0.0016391878016293049,-0.0007288346532732249,-0.0008048550807870923,0.22234255075454712,-0.023883864283560506,9.806953430175781
1785985336.6302762,0.0027298240456730127,-5.757994949817637e-05,0.0016478420002385974,0.19004680216312408,-0.029948003590105757,9.849480628967285
1785985336.6522808,0.0018427495379000902,-0.00037725153379142295,-0.0008330860291607678,0.18318495154380798,-0.006377995014189474,9.797200202941895
1785985336.6699517,-0.00047076656483113766,0.00017324648797512044,-0.0008330243290401995,0.27298808097839355,-0.023611634969710114,9.725546836853027
1785985336.6888726,0.0032050705049186945,-0.0015942436875775454,0.0017832473386079075,0.19162768125534058,0.027569815516473067,9.831611633300781
1785985336.7116148,-0.005024775862693787,0.0020111603662371635,0.0007751812809146939,0.1316295862197876,-0.030609309673308133,9.74283504486084
1785985336.730235,-0.00524780061095953,0.0008962826104834677,0.0010090233990922568,0.171202152967453,-0.010322518646715888,9.663533210754395
1785985336.7530313,-0.00129531673155725,0.0005506796296685935,0.0005424906848929821,0.1286003291606903,-0.07177865505218385,9.863163948059082
1785985336.7701292,0.0006920171435922384,0.001361777656711638,-5.224607593845593e-05,0.26111936569213867,-0.07734517753124116,9.883813858032227
1785985336.7896054,0.005300787277519703,0.0023620901629328723,-0.002044097520411015,0.1929960399866104,-0.012942515313624132,9.828024864196777
1785985336.8115544,0.000791710102930665,-0.00030009890906512737,-7.925466343294825e-05,0.1865749955177307,-0.02055326104164003,9.830260276794434
1785985336.829762,0.004843458533287048,0.0030977162532508373,0.0005411515012383458,0.1810055375099182,-0.08407948911189912,9.843728065490723
1785985336.852318,-0.0008256975561380386,-0.0034171598963439465,-0.0017603551968932147,0.2803358733654022,-0.08706866204738498,9.77784252166748
1785985336.8703067,0.0006914401892572641,-4.3661100789904533e-05,0.0004887536633759737,0.022383302450180054,0.095391593873502,9.670026779174805
1785985336.8902574,-0.0004280318971723318,0.00045726855751127026,0.0017418070929124951,0.14100705087184906,0.10667470097541931,9.953751564025879
1785985336.909513,-0.0025061217602342367,-0.0002603784669190646,-0.00042428373126313085,0.2293715476989746,-0.0029526874423015043,9.79616641998291
1785985336.92913,0.00536275003105402,0.0006425450555980208,0.0014306878438219428,0.07222019135951996,-0.12585702538490176,9.743228912353516
1785985336.9541686,-0.0011898558586835861,-0.0020045121200382714,-0.0018876341637223957,0.18570202589035034,0.09378036856651427,9.867294311523438
1785985336.970535,-0.0010718549601733685,0.0004589250311255453,-0.0016729456838220358,-0.2845573127269745,-0.21598236262798187,10.077627182006836
1785985336.9895835,9.91851557046175e-05,0.0006678719073534012,-0.00024312867026310422,0.09598669409751892,0.0677988529205334,9.686555862426758
1785985337.0095832,0.0030855436343699694,0.001507962238974869,-0.0013077547773718836,0.16493435204029083,-0.23271329700946686,9.905354499816895
1785985337.030215,-0.0003307489678263664,0.002227029064670205,-0.0014259754680097105,0.03899732977151871,0.03232421353459477,9.66487979888916
1785985337.0522187,-0.012848999351263046,-0.003781577572226525,-0.003158624749630689,-0.10116377472877502,-0.1058599054813373,9.812113761901855
1785985337.070261,0.0013013759162276983,-0.004223891068249941,0.0013197255320847039,0.13439802825450897,-0.03332194685935855,9.731597900390625
1785985337.0890021,-0.007995492778718472,0.0031135412864387035,0.0015805526636540885,-0.013586025685071945,-0.07366554439067721,9.713902473449707
1785985337.111237,-0.0023424711544066668,-0.002796076238155366,-0.005450937431305647,0.3179788887500763,0.1105671375989926,9.870841026306152
1785985337.130016,-0.002356114098802209,-0.0027185739018023014,-0.00126636354252696,0.17397081851959229,-0.2904124259948719,9.718537330627441
1785985337.1527798,0.0014727904926985502,-0.003768205642700195,0.0025493055582046513,0.03689463436603546,-0.3073356747627246,9.786994934082031
1785985337.1706767,0.0014264390338212252,-0.0009629535488784313,-4.388489469420153e-05,0.4444880187511444,0.04373066127300383,9.855443000793457
1785985337.1891298,-0.00411683414131403,-0.0011585308238863945,5.53832651348786e-05,0.38812217116355896,-0.04057282209396242,9.817304611206055
1785985337.2133238,0.004301990382373333,-0.003933920059353113,0.0001744771871017297,0.31053972244262695,0.07315032184124114,9.879185676574707
1785985337.2287896,0.0021441245917230844,-0.011985262855887413,-0.0026961611583828913,0.21825192868709564,0.06421471387148023,9.696577072143555
1785985337.254587,0.00369812804274261,-0.0071200295351445675,-0.00016470374248456123,0.1408793330192566,0.17005018889904144,10.00631046295166
1785985337.2695444,0.002178395865485072,-0.004650305025279522,0.00027356002829037666,0.12788791954517365,0.15648651123046997,9.954306602478027
1785985337.2909832,0.007366028614342213,-0.004054924473166466,0.0016183365369215612,0.22484464943408966,-0.0960589349269855,9.73918342590332
1785985337.310801,-0.0019472890999168158,-0.006769151426851749,-0.0021773718763142815,0.39583078026771545,-0.018685884773730038,9.737908363342285
1785985337.3303337,-0.0034252845216542482,-0.00819713156670332,0.0018191885901615034,0.09329329431056976,-0.025905199348925337,9.867683410644531
1785985337.354537,-0.009837498888373375,-0.012814413756132126,-0.0013649439206346854,0.2719632387161255,0.10537687689066053,9.736221313476562
1785985337.3707376,-0.0010750917717814445,-0.009169495664536953,0.0026257883291691555,0.3224697709083557,0.07484307885170102,9.802002906799316
1785985337.3902647,-0.003582712495699525,-0.012289779260754585,-0.0029361944179981934,0.1902645230293274,0.12330953776836519,10.055248260498047
1785985337.4104338,-0.0003124689683318138,-0.009416279383003712,-5.3702591685577075e-05,0.25512081384658813,0.07057997584343077,9.908675193786621
1785985337.430399,-0.0007033399306237698,-0.016310235485434532,0.0006721335230395217,0.21723392605781555,-0.01012443751096604,9.916305541992188
1785985337.4531054,-0.004296952858567238,-0.01935693435370922,-0.001603656564839182,0.2449042946100235,0.011535793542863156,9.945068359375
1785985337.4705713,-0.00999394990503788,-0.023054607212543488,-0.0007520740618929239,0.29996946454048157,-0.020607218146322933,10.011775016784668
1785985337.4894817,-0.0027583844494074583,-0.01575583964586258,0.0009512278484180589,0.33889880776405334,0.03614455461502195,9.788086891174316
1785985337.511788,-0.0023895108606666327,-0.0187832023948431,-0.0024349691811948993,0.3178591728210449,-0.027569912374018415,9.848570823669434
1785985337.530443,-0.0004940740764141083,-0.02056088112294674,-0.0004912954755127405,0.280763179063797,-0.03932109475135683,9.779394149780273
1785985337.5525851,-0.006745390594005585,-0.026229193434119225,0.005144711118191484,0.2845393717288971,-0.17600966989993927,10.038125991821289
1785985337.5696554,-0.006227204576134682,-0.03145238012075424,-9.03045001905373e-05,0.2727738320827484,0.02872715145349622,9.755043983459473
1785985337.5890322,-0.021074166521430016,-0.042375776916742325,0.005066960584372287,0.27535274624824524,0.05651973187923554,10.00059986114502
1785985337.6092906,-0.018161233514547348,-0.052153173834085464,-0.0012595298467203912,0.1711701899766922,0.08264537155628325,9.87166690826416
1785985337.6297045,-0.018901260569691658,-0.05880027264356613,-0.002062449464574449,0.42668426036834717,0.026122227311135567,10.01966667175293
1785985337.652179,-0.029577935114502907,-0.065400630235672,0.00045702795614489225,0.29145917296409607,0.007569640874863876,9.836348533630371
1785985337.6704068,-0.026524534448981285,-0.06326156854629517,0.005088765174150475,0.2695838510990143,-0.2855756282806385,9.391097068786621
1785985337.6912403,-0.027789441868662834,-0.06275740265846252,0.005735619924962528,-0.20053665339946747,-0.09095425903797025,10.151646614074707
1785985337.7086592,-0.02806367166340351,-0.07015392929315567,0.00831009168177844,0.3588973581790924,-0.23190064728259926,9.343661308288574
1785985337.7286932,-0.023059172555804253,-0.08296077698469162,0.008348622359335433,0.5584703087806702,-0.14777791500091436,9.580109596252441
1785985337.7542074,-0.005134841427206993,-0.09658631682395935,0.006560271605849278,-0.2624865770339966,0.2015573382377637,10.273392677307129
1785985337.7707264,-0.0024555327836424112,-0.12046415358781815,0.0028602529782802014,-0.5573774576187134,0.17691211402416357,10.35002326965332
1785985337.7903168,-0.0041365716606378555,-0.15524551272392273,0.0040985895320773316,1.0137298107147217,-0.00817603617906455,9.418091773986816
1785985337.8140423,-0.005850331857800484,-0.18158875405788422,0.005429227836430095,0.695368766784668,0.10567680746317025,9.352571487426758
1785985337.8293405,-0.021435270085930824,-0.213007852435112,0.0017405909020453952,0.8585020303726196,0.02916317433118939,9.680752754211426
1785985337.8535743,-0.013485394418239594,-0.24183228611946106,0.01161517109721902,0.8714293837547302,0.10372359305620307,9.30163860321045
1785985337.8699534,0.01812742091715336,-0.2369309812784195,0.0005128899356350593,-0.510925829410553,0.5660933256149304,10.261397361755371
1785985337.8887818,0.008135941810905933,-0.17457644641399384,0.004102145787328503,0.6945602297782898,0.27500608563423273,9.739518165588379
1785985337.911333,-0.0018862916622310877,-0.09704515337944031,0.003070655511692178,-1.5924395322799683,0.30148172378540167,10.354085922241211
1785985337.929416,0.009073090739548206,-0.05927734076976776,-0.0032628213521093056,-1.2457852363586426,0.0182214155793203,10.621747970581055
1785985337.9539876,0.02290586568415165,-0.044889308512210846,-0.00516450079157948,0.35291627049446106,0.2896713614463819,10.54760456085205
1785985337.9700427,0.0016027807723730803,-0.058366306126117706,0.003477227408438928,0.03796835616230965,0.187371909618379,10.661017417907715
1785985337.9885306,-0.012082046829164028,-0.06071975454688072,-0.000911609386093907,0.453301340341568,-0.3705484271049487,10.564441680908203
1785985338.0135438,-0.03148017078638077,-0.11764594912528992,-0.0011223551118746257,-0.56246417760849,-0.50168740749359,11.308956146240234
1785985338.0301096,-0.02500017173588276,-0.12448523193597794,-0.0036818247754126635,0.9392045736312866,-0.19193653762340415,10.548221588134766
1785985338.0514865,0.0016113983001559973,-0.10157345235347748,0.006426754407584679,0.2591000199317932,0.3269348144531263,10.260321617126465
1785985338.0702617,0.039210472255945206,-0.02666592411696911,-0.0037841245066374506,0.020395290106534958,0.9233865141868604,10.340513229370117
1785985338.0898528,0.06115148216485977,-0.011647653765976429,-0.00011772415018640316,-0.013838782906532288,0.6011440157890332,10.068692207336426
1785985338.109053,0.06213444471359253,-0.000859534135088326,-0.011263405904173851,0.375294029712677,-0.10350662469863767,10.207014083862305
1785985338.1305227,0.04076497256755829,0.050092995166778564,-0.02519774809479714,0.18610098958015442,-0.1095056533813464,10.277792930603027
1785985338.152747,0.030798310413956642,0.1184568852186203,-0.025817159563303008,0.18610098958015442,-0.1095056533813464,10.277792930603027
1785985338.170348,0.050971027463674545,0.15332283079624176,-0.024147739633917826,-0.23757368326187134,0.9249963760375988,9.405050277709961
1785985338.188663,0.05593056231737137,0.2285504937171936,-0.027234308421611814,0.6517243385314941,-0.6451056599616992,9.69427490234375
1785985338.2110226,0.01615832932293415,0.32000941038131714,-0.024849385023117104,0.2343955934047699,-0.03997939825057869,9.374323844909668
1785985338.2302272,0.015417822636663914,0.39350420236587524,-0.04231300950050359,-1.5053564310073853,0.7188900113105786,10.23393726348877
1785985338.2525911,0.023008430376648903,0.4236971139907837,-0.016803570091724448,0.633712112903595,-0.2469180673360812,10.102715492248535
1785985338.2707415,-0.03247300535440445,0.44543325901031494,-0.015960423275828417,-4.035845756530762,1.27345907688141,10.98425579071045
1785985338.2901635,0.08623617887496948,0.49719905853271484,-0.012642177753150524,-1.4673256874084473,0.6589330434799208,11.279659271240234
1785985338.310124,0.07886102795600891,0.5395268797874451,-0.018520662561059064,-0.5875343084335327,0.6930646896362317,9.80090045928955
1785985338.3301084,0.019411131739616394,0.5926464200019836,-0.008518511429429127,-0.5875343084335327,0.6930646896362317,9.80090045928955
1785985338.352423,0.12397206574678421,0.5992801189422607,-0.022000726312398983,-0.5875343084335327,0.6930646896362317,9.80090045928955
1785985338.3699472,0.07120659947395325,0.5290543437004089,-0.011256829835474555,2.285604238510132,-0.1455018073320376,10.48873519897461
1785985338.4101214,0.038459762930870056,0.2903416156768799,-0.020561387762427365,-0.2520529329776764,0.11765182763338218,10.500844955444336
1785985338.428294,0.06044577807188034,0.21125231683254242,-0.032204698771238355,1.5823335647583008,0.016832575201989473,10.241004943847656
1785985338.4905958,0.040479011833667755,0.05271419882774353,-0.005978718400001532,-0.7205057144165039,0.39013266563415655,10.370105743408203
1785985338.528546,0.08585726469755173,0.06041460484266281,-0.01562513783574105,-0.887861430644989,-0.3154598772525774,10.906327247619629
1785985338.5541186,0.09501400589942932,0.14667537808418274,-0.002663426101207751,2.0899741649627686,-0.6704559326171862,10.862354278564453
1785985338.589618,0.07120073586702347,0.2527114450931549,-0.003943292424082787,-0.10273618996143341,0.24840907752514013,10.392260551452637
1785985338.6103725,0.10159289091825485,0.2605712115764618,0.0025798920542001403,-1.5569589138031006,0.6491485238075269,9.784626007080078
1785985338.6283493,0.06750161945819855,0.24682380259037018,0.002384009305387705,0.12043553590774536,0.18965235352516302,10.455459594726562
1785985338.6540864,0.10693272203207016,0.19810444116592407,0.002740453928709006,0.12043553590774536,0.18965235352516302,10.455459594726562
1785985338.6699839,0.134207621216774,0.13110075891017914,0.017460873350501043,-1.5472326278686523,1.211314082145692,9.07404613494873
1785985338.689802,0.10190120339393616,0.09374463558197021,0.007208318449556816,-1.0883139371871948,0.5993652939796459,9.512558937072754
1785985338.7524679,0.08984216302633286,0.05105433240532875,0.004575672093778843,-0.046359430998563766,0.16840776801109433,9.812957763671875
1785985338.8126943,0.07555268704891205,-0.005337023176252841,0.006193154957145453,0.27048251032829285,0.17906528711319084,9.32094955444336
1785985338.8293223,0.03918931633234024,-0.0014581386931240548,0.008416595868766308,-0.39319729804992676,0.17148268222808954,9.519011497497559
1785985338.869958,0.07157446444034576,0.0030849927570670865,0.019370947033166885,0.23746438324451447,8.62032175183304e-06,9.734801292419434
1785985338.8888724,0.026690132915973663,-0.015462406910955904,0.01993859931826592,-0.4303017258644104,0.31847092509269825,9.01852798461914
1785985338.9101157,0.024925678968429565,0.0008921375265345,0.018559256568551064,-0.4303017258644104,0.31847092509269825,9.01852798461914
1785985338.9541142,-0.04075785353779793,-0.04033058509230614,0.008331135846674447,-1.4762738943099976,0.42127498984336964,9.275664329528809
1785985339.0704138,-0.07606232166290283,-0.12408611178398132,-0.003232563380151972,0.2122710943222046,0.05157649144530415,9.672863006591797
1785985339.0888176,-0.08622244745492935,-0.09027160704135895,-0.0031955488957464587,-0.29461395740509033,0.24112135171890378,9.733034133911133
1785985339.1113174,-0.06695373356342316,-0.07598331570625305,-0.018411742523312558,-3.010951042175293,0.5402962565422069,9.354981422424316
1785985339.1288402,-0.0413745753467083,-0.10278160125017166,-0.0032888217829167717,2.133157730102539,-0.19074833393096796,10.315703392028809
1785985339.154132,-0.04398758336901665,-0.1092304140329361,-0.008536209352314458,-1.4270285367965698,0.43570652604103205,9.636443138122559
1785985339.2516742,-0.01843210868537426,-0.05476711317896843,-0.009425667114555829,-2.130770444869995,0.6274722814559949,9.541643142700195
1785985339.269107,-0.005850217305123806,-0.05268057435750961,0.00046983442734927584,-0.3761811852455139,0.20651373267173886,9.852923393249512
1785985339.2901568,0.005770093761384487,-0.008352551609277727,-0.010820751078426836,-3.2393240928649902,0.7536941766738903,9.259946823120117
1785985339.309807,0.03623891621828079,0.007495378609746694,-0.008523463271558286,1.641883134841919,0.3038125634193432,9.717277526855469
1785985339.3284202,0.03127328306436539,0.00760630378499627,-0.00893908739089966,0.27524885535240173,-0.021794311702250234,9.793204307556152
1785985339.3512762,0.01680643856525421,0.01847393624484539,-0.008270676247775556,-0.7865433096885681,1.264641284942628,8.96750259399414
1785985339.3706012,0.043834708631038666,0.00219393940642476,-0.005811505485326052,-0.7783210277557373,0.3010376095771801,9.672011375427246
1785985339.3885145,0.05428308621048927,0.01155990269035101,-0.0052700350061059015,-0.17680776119232178,0.3118027448654187,9.853728294372559
1785985339.4895961,0.009904420003294945,-0.023165768012404442,-0.008669753558933731,0.00975310429930687,0.10871411859989288,9.996772766113281
1785985339.5083475,0.011643446050584316,-0.03002854809165001,0.0010163716506212987,-0.4929567575454712,0.5360649824142468,9.574095726013184
1785985339.5288692,0.01829938404262066,-0.005012023262679578,-0.006862136535346507,-0.4929567575454712,0.5360649824142468,9.574095726013184
1785985339.5541751,0.037317659705877304,-0.05001953989267349,-0.0006025700131431161,-0.4929567575454712,0.5360649824142468,9.574095726013184
1785985339.5698977,0.0623382143676281,-0.07295119017362595,0.003186733927577743,-3.292573928833008,1.2490727901458751,9.332674026489258
1785985339.6284478,0.05012480914592743,-0.06272677332162857,0.004864880815148361,-3.292573928833008,1.2490727901458751,9.332674026489258
1785985339.6896899,-0.03841064125299454,0.008723214268684387,-0.0029609124176204213,-0.43404456973075867,0.21231061220169184,9.50134563446045
1785985339.7285058,-0.06212513893842697,0.04259193316102028,0.00230869092047214,-0.4924028515815735,0.0624817758798611,9.556818008422852
1785985339.754309,-0.02673966996371746,0.009257505647838116,-0.0038101519457995905,-0.5501435995101929,0.1661294400691998,9.835187911987305
1785985339.7700074,-0.017834875732660294,-0.02388143166899681,0.005013098474591973,-0.5058083534240723,0.40265184640884516,9.646656036376953
1785985339.7887442,-0.04448799416422844,-0.0014427644200623053,-0.014837555587291718,-0.5058083534240723,0.40265184640884516,9.646656036376953
1785985339.8185363,-0.03243224322795868,-0.04496364668011665,0.001997308107092982,-0.6347659230232239,0.6374540328979503,9.089378356933594
1785985339.8283253,0.006453902460634708,-0.07661747932434082,0.0007957842317409908,-0.46168261766433716,0.42638093233108637,9.46750259399414
1785985339.8515663,-0.004710332490503788,-0.07289464771747589,0.005568786989897498,-0.46168261766433716,0.42638093233108637,9.46750259399414
1785985339.890598,0.0332937091588974,0.01942688412964344,0.01076048333197832,-0.11358952522277832,0.4026266336441052,9.858465194702148
1785985339.9092908,0.05580470710992813,0.013243368826806547,0.010078902356326578,-0.37064605951309204,0.47753471136093256,9.544702529907227
1785985339.9304426,0.020541489124298096,-0.0026419525966048215,0.02180621027946472,-2.731288194656372,0.321113318204881,9.827589988708496
1785985339.9526978,-0.006147198379039764,-0.006625664420425892,0.002689484041184188,-2.731288194656372,0.321113318204881,9.827589988708496
1785985339.9886394,-0.024980157613754272,-0.016553135588765144,0.006723383441567423,-0.06049589067697525,0.4916541278362286,9.717966079711914
1785985340.0104342,-0.06651469320058823,0.012577009387314321,0.007301265373826025,-0.2376977503299713,0.12893021106720093,9.989189147949219
1785985340.070055,-0.07452423125505447,0.004393163602799177,-0.0003514057607389992,-0.39232614636421204,0.21944636106491208,9.7366304397583
1785985340.0882921,-0.07273822277784348,-0.011035498231649399,-0.006089880131185053,-0.018721843138337135,0.3469775319099438,9.466763496398926
1785985340.1107821,-0.03607572242617607,-0.02341487817466259,-0.01039896439760923,-0.3247227966785431,0.30886712670326355,10.096101760864258
1785985340.1303802,-0.028389334678649902,-0.037597183138132095,0.0011242185719311283,-0.3247227966785431,0.30886712670326355,10.096101760864258
1785985340.1523201,-0.01421261578798294,-0.05033234506845474,0.008783327415585525,-1.8627376556396484,0.8725574612617504,9.353513717651367
1785985340.170644,0.009750394150614738,-0.03890956938266754,0.0061971810646355195,-0.2825462520122528,0.4922436475753796,9.660333633422852
1785985340.1903694,-0.0008821070659905672,-0.007090982049703596,0.013690083287656309,-0.017865534871816635,0.2286670506000531,9.902850151062012
1785985340.2103024,0.03547742962837219,0.007721882313489916,0.013404447585344313,-0.017865534871816635,0.2286670506000531,9.902850151062012
1785985340.2292278,0.09782213717699051,-0.005481309723109006,0.009661048650741577,-0.3879915773868561,0.5264662504196178,9.417311668395996
1785985340.2543168,0.10237782448530197,0.004787062760442495,-0.00025257421657443106,0.6429356932640076,-0.30624091625213506,9.684003829956055
1785985340.2701058,0.09964542835950851,0.013962682336568832,-0.002514457097277047,-1.791521668434143,1.6332249641418468,8.56106185913086
1785985340.2884688,0.131204292178154,-0.04318041726946831,0.0010137390345335059,1.8095327615737915,0.3409458100795758,9.822087287902832
1785985340.3093777,0.10948368161916733,-0.1144612729549408,0.01737567968666555,-0.2515069246292114,0.43727782368660095,9.819683074951172
1785985340.3283286,0.08263019472360611,-0.09749838709831238,0.012135195545852196,-0.46208858489990234,0.32395720481872675,9.637293815612793
1785985340.3688648,0.11341533809900284,-0.02776109054684639,0.013345160521566871,0.3920696973800659,0.46483889222145197,9.550512313842773
1785985340.4108236,0.06517674028873444,-0.031232830137014386,0.020615980029106144,-0.3920108377933502,0.22158545255661125,9.327630996704102
1785985340.429255,0.07589136064052582,-0.022411214187741276,0.02022049762308598,-0.17795248329639435,0.1397601217031491,9.866954803466797
1785985340.451561,0.08852134644985199,-0.040593504905700684,0.019189734011888507,-0.17795248329639435,0.1397601217031491,9.866954803466797
1785985340.5092318,0.04673980921506882,-0.09191159158945084,0.01144815143197776,-1.7468721866607666,0.5424904823303234,9.270699501037598
1785985340.5705736,0.03731585666537285,-0.04819084703922272,0.014598442241549497,-0.04666966199874878,0.12534861266613123,9.468214988708496
1785985340.5904865,-0.00944457110017538,-0.05908045172691345,0.018110828474164016,-0.3627043068408966,0.0027056112885487163,9.802206039428711
1785985340.611441,-0.06817404925823212,-0.034224733710289,0.004319086205214266,-2.317633867263794,0.2823492586612713,9.577353477478027
1785985340.6705446,-0.0794336199760437,-0.025378936901688576,-0.0011215433478355377,-2.317633867263794,0.2823492586612713,9.577353477478027
1785985340.710473,-0.09802787750959396,-0.008058263920247557,-0.010685259476304053,-0.33249443769454956,0.30142024159431574,9.329341888427734
1785985340.7303443,-0.09176889061927795,0.010376233607530592,-0.013486397452652456,-0.17245198786258698,0.16099444031715515,10.059070587158203
1785985340.7545426,-0.09115328639745712,0.004671153612434863,-0.010401139035820961,-2.1280388832092285,-0.040238410234450094,9.824889183044434
1785985340.7706883,-0.05024375393986702,0.053762298077344894,-0.009678368456661708,0.22336679697036743,0.692387342453004,9.413909912109375
1785985340.819781,-0.05002966523170471,0.04680199176073074,0.002044524066150183,0.9718871116638184,0.22695788741111877,9.915239334106445
1785985340.829164,-0.02276879921555519,0.044657059013843536,0.007102159783244128,1.1133508682250977,-0.11235633492469667,9.856144905090332
1785985340.868889,-0.029514215886592865,0.0526985302567482,0.004832144360989326,0.8367787003517151,0.09795055538416032,10.04065227508545
1785985340.890954,-0.04241663217544556,0.05582243949174881,-0.0027431496419012616,-0.08556467294692993,0.26639747619629023,9.605463027954102
1785985340.910972,-0.06638919562101364,0.05209656432271004,-0.004147215280681855,-0.23134088516235352,0.1470462530851376,9.85587215423584
1785985340.9298592,-0.08447447419166565,0.06629668921232224,-0.011516164056956777,-0.34006524085998535,0.39555972814560053,9.533866882324219
1785985340.9528017,-0.06207427754998207,0.08541227132081985,-0.01907869428396226,-3.272462844848633,1.231180787086488,8.92573356628418
1785985340.9694595,-0.06038355454802513,0.053267739713191986,-0.015920680016279228,-3.272462844848633,1.231180787086488,8.92573356628418
1785985340.9908376,-0.07372942566871643,0.04092817381024361,-0.025416458025574688,-0.0294584222137928,0.34394893050193903,9.570759773254395
1785985341.0119042,-0.07409081608057022,0.012689333409070967,-0.018572207540273666,-0.0294584222137928,0.34394893050193903,9.570759773254395
1785985341.052999,-0.10155010968446732,-0.019239289686083797,-0.015406306833028792,2.2519874572753906,0.04832314327359319,9.760498046875
1785985341.0689776,-0.08538621664047241,-0.02702171728014946,-0.009492292068898674,-2.708970785140991,0.4320677518844616,9.33724594116211
1785985341.0880353,-0.0821339413523674,-0.046419449150562286,-0.014149447903037066,-1.668424129486084,0.9134024381637584,9.000724792480469
1785985341.1109166,-0.09501028060913086,-0.03565864637494087,-0.008986442349851126,0.9586478471755981,0.2756454646587384,9.787105560302734
1785985341.130957,-0.10169226676225662,-0.040767647325992584,0.009680024348199373,0.9586478471755981,0.2756454646587384,9.787105560302734
1785985341.170962,-0.015791531652212143,-0.05563194304704666,0.012943192385137088,1.2821180820465088,-0.9856948256492603,9.888797760009766
1785985341.1904778,-0.011067151091992855,-0.03727983683347702,0.025856444612145427,-2.486304759979248,0.9596554040908825,9.307939529418945
1785985341.2094908,0.02236640825867653,-0.0003488287329673749,0.014723916538059711,2.932344913482666,-1.2896144390106188,10.569870948791504
1785985341.2282267,0.04379552602767944,-0.01034319121390581,0.019166413694620132,2.932344913482666,-1.2896144390106188,10.569870948791504
1785985341.253442,0.06052885577082634,-0.011085799895226954,0.015467924997210504,-0.21982187032699585,0.306096136569978,9.547307968139648
1785985341.2706962,0.051231738179922104,0.018046598881483078,0.006480089388787744,-0.21982187032699585,0.306096136569978,9.547307968139648
1785985341.2901003,0.0655253604054451,0.06293973326683044,0.00458502955734729,0.031925175338983536,0.139505058526994,9.643463134765625
1785985341.308732,0.08366531133651733,0.04104243218898773,0.006808659527450795,-0.08831906318664551,0.021819427609444872,9.866605758666992
1785985341.32935,0.08959934115409851,0.03396916389465332,0.009882230311632153,-0.04150998592376709,0.3354538679122936,9.16313362121582
1785985341.3516197,0.03319401293992996,0.024433432146906853,0.011353370733559128,-0.042957618832588196,-0.07919166237115738,9.956705093383789
1785985341.3694952,-0.0088876998052001,0.031106898561120033,0.006906869355589148,-0.042957618832588196,-0.07919166237115738,9.956705093383789
1785985341.3907855,-0.025081569328904152,-0.05257854238152504,0.00943980738520623,-0.42267680168151855,0.21971414983272672,9.769631385803223
1785985341.4113002,-0.0604497566819191,-0.06922522187232971,0.011482194066047677,1.7470250129699707,-0.43898493051528803,10.465726852416992
1785985341.4290857,-0.07677338272333145,-0.07716043293476105,0.012391838245093831,1.7470250129699707,-0.43898493051528803,10.465726852416992
1785985341.4703412,-0.03372881934046745,-0.11629285663366318,0.007814447395503535,-0.5973793268203735,-0.06860226392745851,9.853462219238281
1785985341.5112548,-0.011505751870572567,-0.06983765959739685,-0.009096703492104998,-0.3763963282108307,0.33367750048637507,9.459930419921875
1785985341.5303376,0.01801089011132717,-0.07154775410890579,-0.015379060991108409,-0.2595178186893463,0.912074923515321,9.571306228637695
1785985341.5522032,-0.017627647146582603,-0.07593334466218948,-0.00674207927659153,0.2658502161502838,-0.5737119317054736,9.716218948364258
1785985341.5703716,-0.043330591171979904,-0.06933584809303284,-0.00440993206575512,-2.2380266189575195,0.7925871610641492,9.550600051879883
1785985341.6098914,-0.009524817578494549,-0.040425628423690796,-0.0033166152425110292,-0.5978522896766663,0.3222715854644787,9.534494400024414
1785985341.6291687,-0.021658729761838913,-0.02912491001188755,0.003421168308705095,-0.20170436799526215,0.21142309904098633,9.88526439666748
1785985341.6540737,-0.007420575246214867,0.0023068299051374175,-0.01697542518377304,-1.0143431425094604,0.8648294210433972,9.599946975708008
1785985341.6706922,0.008611038327217102,0.003125024028122423,-0.01713075488805771,-0.05898558348417282,0.2151189744472516,10.048667907714844
1785985341.7094047,0.013462930917739868,0.008543546311557291,-0.019113149493932724,-0.20989437401294708,0.15906229615211606,9.644091606140137
1785985341.7891476,0.08512351661920547,-0.01848488673567772,-0.010397294536232947,-1.0896329879760742,0.008675746619702577,9.726363182067871
1785985341.8119864,0.052429940551519394,0.009768487885594366,-0.013688861392438413,0.253397673368454,0.12213542312383772,9.900496482849121
1785985341.8304598,0.020815391093492508,0.034257207065820694,-0.007006848230957989,-1.7313930988311768,1.0201760530471813,9.669258117675781
1785985341.851913,0.023472078144550323,0.05835127457976341,-0.008165533654391773,-1.7313930988311768,1.0201760530471813,9.669258117675781
1785985341.9111397,0.006807629484683275,0.04918534681200981,0.005608271807432169,0.0995270311832428,0.16651809215545774,9.718637466430664
1785985341.9540896,0.03923965245485306,0.046175114810466766,-0.00032982608536258904,0.023668330162763596,0.1492863595485699,9.541627883911133
1785985341.969874,0.0765712782740593,0.01449764333665371,-0.005294957198202612,0.023668330162763596,0.1492863595485699,9.541627883911133
1785985341.989013,0.05800962075591087,-0.011340577155351639,-0.005400981288403271,0.49243804812431335,1.456446409225465,9.596454620361328
1785985342.0105085,0.015146413818001747,0.02466274425387382,-0.015415789559483532,-0.49339237809181213,0.45916098356247065,9.539680480957031
1785985342.02916,0.018324658274650574,0.0669017881155014,-0.01700431108474732,-1.194162368774414,-0.017261639237402638,10.056356430053711
1785985342.0704176,0.0604228712618351,0.04228908196091652,-0.019561374559998516,0.19484615325927734,-0.06977079808711882,10.056227684020996
1785985342.0905297,0.04961840808391571,0.07242699712514877,-0.006781053729355344,-1.3050118684768677,1.632415771484376,9.61815071105957
1785985342.110319,0.07183770835399628,0.07620570808649063,-0.003071850864216695,1.4005860090255737,-0.3047504425048816,9.780486106872559
1785985342.1292486,0.09052286297082901,0.08340708166360855,-0.009531724266707908,-0.6715807914733887,0.5473141670227062,9.178609848022461
1785985342.1896663,0.13307969272136688,-0.026165949180722237,0.0037309068720787794,-0.5527229905128479,0.2973119020462048,9.516914367675781
1785985342.2101738,0.09447627514600754,-0.03354659676551819,0.009458050131797794,-0.21589992940425873,0.34378650784492615,9.754044532775879
1785985342.22917,0.06590136140584946,-0.02394107729196548,0.015056359581649307,2.6872048377990723,-0.7509369850158679,10.20332145690918
1785985342.2519658,0.06297589838504791,-0.039380673319101334,0.0019849268719553995,-3.3118467330932617,1.291558861732484,8.876472473144531
1785985342.2694592,0.033785380423069,-0.06930440664291382,0.01357908546924592,2.2463674545288086,0.2480324804782879,9.485321998596191
1785985342.2901723,-0.031922679394483566,-0.0498165525496006,0.005276813637465245,0.8665668964385986,-0.258950740098952,10.194689750671387
1785985342.3108077,-0.013486208394169807,-0.029554324224591255,-0.0024886301252990926,1.1685898303985596,0.11357647180557368,9.49502944946289
1785985342.353577,-0.05380788445472717,-0.027925213798880577,0.012143488973379139,1.1685898303985596,0.11357647180557368,9.49502944946289
1785985342.3705094,-0.07936416566371918,0.056440167129039764,0.012021055445075028,-0.3489846885204315,0.11570771783590438,9.903640747070312
1785985342.389614,-0.07586448639631271,0.07036007940769196,0.025508929044008248,-0.7483580708503723,-0.27026805281638977,10.097614288330078
1785985342.4100995,-0.08875386416912079,0.06776232272386551,0.031836926937103265,-0.34737902879714966,0.5773270726203931,9.573958396911621
1785985342.4529073,-0.04210610315203667,-0.004744775593280787,0.03951318934559822,-0.190884068608284,0.2668483853340161,9.832660675048828
1785985342.4698822,-0.05612859129905701,-0.005326691083610053,0.04527099058032036,-0.42145583033561707,0.4090747237205517,9.64327335357666
1785985342.4891331,-0.05726870894432068,0.01160264760255814,0.029584642499685287,-0.11541372537612915,-0.04124591499566907,10.206635475158691
1785985342.5112858,-0.00346352718770504,-0.013749855570495125,0.034253668040037155,-3.338646173477173,0.7390021681785596,9.53065299987793
1785985342.5292103,-0.004058083053678274,-0.008437621407210822,0.03648354858160019,-0.4395836889743805,0.4004511237144482,9.436480522155762
1785985342.5537605,-0.017375189810991287,0.02228488773107529,0.027869351208209988,-0.07203580439090729,0.1299634277820599,9.812100410461426
1785985342.5702384,-0.00841728039085865,0.04733866825699807,0.03422164916992187,-0.36285489797592163,0.4829282164573681,9.617130279541016
1785985342.589414,0.012812677770853043,0.046670824289321906,0.040532425045967095,-0.36285489797592163,0.4829282164573681,9.617130279541016
1785985342.6088622,-0.0024993382394313812,0.04997940361499787,0.04772892221808433,0.7587375044822693,0.14494994282722592,9.8521089553833
1785985342.628741,-0.00021198741160333157,0.07274486124515533,0.044371485710144036,-0.15886349976062775,0.2898913621902478,9.795559883117676
1785985342.6547422,0.014895576983690262,0.06600096821784973,0.051012646406888955,-0.15886349976062775,0.2898913621902478,9.795559883117676
1785985342.670024,0.020351175218820572,0.03031913377344609,0.05599128082394599,2.2462854385375977,-0.3880972564220417,9.696646690368652
1785985342.6892772,-0.0011483796406537294,0.003782433224841961,0.06999032944440842,-0.3918672502040863,0.5935100317001354,9.442172050476074
1785985342.7524786,-0.023616261780261993,-0.050943188369274126,0.09918349236249924,-0.36026787757873535,0.6858283281326305,9.342947006225586
1785985342.7697804,-0.04497947543859482,-0.030001357197761522,0.10011681169271469,-0.05119507387280464,0.38246205449104426,9.564952850341797
1785985342.830314,-0.09010723978281021,0.025239307433366793,0.13246002793312073,2.0213637351989746,-0.10777847468852876,9.913963317871094
1785985342.8516955,-0.06118977069854736,0.02147918939590456,0.1383088082075119,-1.504079818725586,0.18588626384735227,9.818795204162598
1785985342.8681974,-0.02220492623746395,0.03786515817046167,0.1330157369375229,-1.3600504398345947,1.1113283634185802,9.63958740234375
1785985342.8884616,0.020542794838547707,0.012436460703611391,0.1484881341457367,-0.11718150973320007,0.339072108268739,9.746054649353027
1785985342.9101658,0.04295596852898598,-0.012145518325269201,0.16416849195957184,2.115593671798706,-1.0974322557449327,10.095138549804688
1785985342.9286432,0.07789357006549835,-0.021781878545880297,0.16199707984924316,-0.5486096143722534,-0.11616404354572174,9.997847557067871
1785985342.9516618,0.08223579823970795,-0.030397161841392496,0.1631002575159073,-0.697634220123291,0.9533039927482617,9.721555709838867
1785985342.9692538,0.10392498970031738,-0.041757166385650614,0.17293168604373932,-0.6350961923599243,0.40448629856109736,9.412841796875
1785985342.9902089,0.10987070947885513,-0.04631815105676649,0.17708808183670044,1.0805277824401855,0.9354903101921094,9.657818794250488
1785985343.0096436,0.10705367475748062,-0.038623858243226984,0.18255114555358887,-2.339520215988159,-0.16267226636409632,10.322750091552734
1785985343.0286832,0.0806049332022667,-0.02063023857772348,0.18765321373939514,2.0898220539093018,0.5687996149063123,9.83503246307373
1785985343.0541217,0.06420954316854477,-0.03141639381647107,0.22059817612171173,-0.42202168703079224,0.5930063724517833,9.501651763916016
1785985343.0704331,0.021242516115307808,-0.02339293807744977,0.23183748126029968,0.12975597381591797,0.005876868963242796,9.953089714050293
1785985343.0890727,-0.015770047903060913,-0.031108591705560656,0.23470479249954224,-0.4350747764110565,0.6574221849441539,9.206722259521484
1785985343.1110938,-0.047377780079841614,0.028707388788461716,0.2579059302806854,-1.8721423149108887,-0.5495263338088977,9.665018081665039
1785985343.1523077,-0.06870173662900925,0.05884140729904178,0.2805752456188202,-2.9321863651275635,0.42796385288238636,9.093533515930176
1785985343.2089505,-0.03694618493318558,0.09463457763195042,0.31381988525390625,0.9492737054824829,-0.1495095193386066,9.813215255737305
1785985343.2301254,-0.06190197169780731,0.11019207537174229,0.32561835646629333,-0.6933572888374329,0.3786224722862256,9.859955787658691
1785985343.2531888,-0.03981278836727142,0.09929210692644123,0.33178600668907166,1.181105613708496,-0.19146758317947268,9.718768119812012
1785985343.2704809,-0.03541450947523117,0.10925024002790455,0.3433282673358917,-0.5795793533325195,0.4118126630783093,10.070513725280762
1785985343.2893343,-0.034126222133636475,0.0825467482209206,0.35113969445228577,-1.1001920700073242,0.622211813926698,9.875670433044434
1785985343.3286846,-0.042901478707790375,0.06416273862123494,0.37388211488723755,0.055459246039390564,0.3428940176963818,9.718280792236328
1785985343.3901107,-0.0340002067387104,0.0045034694485366865,0.42508870363235474,-0.37312051653862,0.6318838596344005,9.363263130187988
1785985343.410685,-0.0013834363780915737,0.03130046278238302,0.44036829471588135,-0.3907025158405304,0.3682883977890027,9.796545028686523
1785985343.4697568,0.012880086898803711,0.045791141688823755,0.45787253975868225,-0.22083769738674164,0.0852933153510106,10.060749053955078
1785985343.489306,0.021545063704252243,0.08467470854520803,0.46938595175743103,-0.8345812559127808,0.2607883512973797,9.489198684692383
1785985343.5113819,0.042779549956321716,0.06622862815856939,0.4634760916233063,-0.13985629379749298,0.12371945381164673,10.005413055419922
1785985343.5302045,0.0013355892151594162,0.043725557625293794,0.48527243733406067,-0.13985629379749298,0.12371945381164673,10.005413055419922
1785985343.5522878,-0.017028532922267914,0.046385988593101564,0.48877936601638794,-0.13985629379749298,0.12371945381164673,10.005413055419922
1785985343.5704288,-0.01083412580192089,0.04260828718543059,0.49434712529182434,-0.286871075630188,1.3036477565765392,9.405050277709961
1785985343.5891306,-0.020229574292898178,0.04792786017060286,0.5026751756668091,-1.4744459390640259,-0.22249558568000669,10.18997573852539
1785985343.612448,-0.06675397604703903,0.03081867843866355,0.5242710113525391,-0.9002628922462463,0.7410538196563732,9.392472267150879
1785985343.6542125,-0.042369626462459564,0.09040191024541862,0.5155696272850037,0.8578118681907654,-1.2493157386779772,10.009346008300781
1785985343.670344,-0.062226101756095886,0.09726202487945564,0.5521731376647949,-0.1907069832086563,1.0178290605545055,9.312383651733398
1785985343.6889622,-0.015635861083865166,0.14352078735828405,0.5487112402915955,-1.5001490116119385,-0.6693335771560658,9.436562538146973
1785985343.711225,0.02580150030553341,0.14871039986610418,0.5596388578414917,-0.06503137946128845,0.6473227739334118,9.374492645263672
1785985343.7307937,0.021617921069264412,0.11614660918712623,0.5689283013343811,-0.2183072865009308,0.4478136003017437,9.613865852355957
1785985343.7529364,0.029022017493844032,0.11647386848926551,0.5871559977531433,-0.3621160387992859,0.5056383013725292,9.513535499572754
1785985343.78911,0.041003692895174026,0.08955951035022743,0.5944004058837891,0.06285242736339569,0.24529357254505277,9.830244064331055
1785985343.8118222,0.013916464522480965,0.08668714016675956,0.6100069880485535,-0.6487317681312561,0.5225023031234752,9.385797500610352
1785985343.8289235,0.031078284606337547,0.0994131267070771,0.6118758320808411,-0.13721561431884766,0.16132435202598694,9.859565734863281
1785985343.8705115,0.005560265388339758,0.028565395623445587,0.6155794262886047,-0.46321770548820496,0.3402595520019543,9.67685604095459
1785985343.8903081,0.0014405450783669949,0.007499243132770138,0.6241740584373474,-0.46321770548820496,0.3402595520019543,9.67685604095459
1785985343.9107077,0.008443601429462433,-0.05030691251158707,0.6280665397644043,-0.46321770548820496,0.3402595520019543,9.67685604095459
1785985343.9301946,-0.01574338786303997,-0.07367987185716621,0.6392782330513,1.6192245483398438,-0.36950808763503906,9.860161781311035
1785985343.953654,-0.034736670553684235,-0.07391802221536628,0.6501935124397278,3.0840046405792236,-0.2797185182571399,10.133088111877441
1785985343.9693093,-0.030019862577319145,-0.06630442291498176,0.6631811261177063,-3.756751537322998,0.06217660754919174,9.994758605957031
1785985343.9911597,-0.05956245958805084,-0.05609289929270736,0.6649268269538879,-0.7567000389099121,0.4541165828704845,9.242300987243652
1785985344.0121188,-0.07953726500272751,-0.030913192778825677,0.6713046431541443,-0.7567000389099121,0.4541165828704845,9.242300987243652
1785985344.0521095,-0.019393814727663994,-0.04918572306632987,0.7064359188079834,1.4706305265426636,-0.2959909141063678,9.766597747802734
1785985344.1098204,0.03916488215327263,-0.05398486927151672,0.7067688703536987,1.9525891542434692,-0.9868595004081714,9.768572807312012
1785985344.155114,0.0059080361388623714,-0.009333213791251096,0.7100862860679626,1.9525891542434692,-0.9868595004081714,9.768572807312012
1785985344.1702383,0.002156984992325306,-0.002920910716056734,0.7317567467689514,-0.7882099747657776,0.7250798940658582,9.71316909790039
1785985344.1900208,-0.010871430858969688,0.027600573375821204,0.7348596453666687,-0.19843405485153198,0.4399456381797802,9.595890045166016
1785985344.210227,-0.04626498371362686,0.05749284103512773,0.7370888590812683,-1.1293784379959106,0.5506930947303784,9.619087219238281
1785985344.2300928,-0.04074358940124512,0.052331216633319945,0.7444872260093689,3.3026540279388428,0.026741124689580176,9.530686378479004
1785985344.2517767,-0.05547357723116875,0.07640022784471522,0.7698496580123901,-1.6701260805130005,1.2840368747711193,9.719561576843262
1785985344.2706518,-0.051645051687955856,0.11757678538560877,0.773083508014679,-0.5189913511276245,0.5632191300392162,9.50076675415039
1785985344.2900484,0.007393363397568464,0.08484487980604181,0.7789002656936646,-0.7154132127761841,-0.7649980187416066,9.444162368774414
1785985344.3092442,0.0011141698341816664,0.06528785824775706,0.8035696744918823,0.1406618356704712,0.6216583847999585,9.533082962036133
1785985344.328641,-0.028655484318733215,0.09639613330364237,0.8101924657821655,2.9672586917877197,0.45546054840088,9.078611373901367
1785985344.3526652,-0.027888868004083633,0.09077878296375284,0.8192557692527771,-1.1000417470932007,0.20296540856361509,9.661870956420898
1785985344.3688223,-0.005452806130051613,0.10078614205122004,0.8257664442062378,-1.056679129600525,0.24537996947765472,9.886414527893066
1785985344.390171,-0.027851462364196777,0.0895853489637376,0.8512108325958252,-0.44624853134155273,0.4245997071266186,9.58608341217041
1785985344.410963,0.004259794484823942,0.12235737591981898,0.8477031588554382,0.22039563953876495,0.07754655927419782,9.764277458190918
1785985344.430484,0.03651437535881996,0.15680654346942913,0.842909574508667,-1.328352451324463,0.670098364353181,9.353585243225098
1785985344.4528127,0.015066098421812057,0.1347176730632783,0.86799556016922,-2.2238717079162598,0.1345500946044934,9.947712898254395
1785985344.4694428,0.022064022719860077,0.1342463940382005,0.8653976917266846,2.6403539180755615,0.30266612768173334,9.40418815612793
1785985344.4921122,0.019733548164367676,0.14441221952438366,0.8589501976966858,-1.0306761264801025,0.5639981627464307,9.533994674682617
1785985344.5116718,0.030682019889354706,0.11065164208412182,0.8687354922294617,-1.0306761264801025,0.5639981627464307,9.533994674682617
1785985344.5286622,0.014001683332026005,0.09434070438146602,0.8774600028991699,-1.1118102073669434,0.36267811059951904,9.79417610168457
1785985344.552141,0.04295376315712929,0.08253082633018505,0.8757888674736023,-0.24437753856182098,0.008255623281003271,10.021305084228516
1785985344.589432,-0.03761187568306923,0.06945833563804638,0.8905042409896851,-1.7472995519638062,1.1481276750564589,9.98025894165039
1785985344.60996,0.010635923594236374,0.054358649998903386,0.8976368308067322,-0.21867793798446655,0.12359613180160642,9.770246505737305
1785985344.6299505,0.008120574057102203,0.09845788031816494,0.8897133469581604,0.1980133354663849,0.5440466403961193,9.404936790466309
1785985344.6530209,-0.013367731124162674,0.12617088854312908,0.8843882083892822,-0.6461634039878845,0.7666606307029736,9.61460018157959
1785985344.6695135,0.005823210813105106,0.11613287776708614,0.9004167914390564,-0.6461634039878845,0.7666606307029736,9.61460018157959
1785985344.6903107,0.009184085763990879,0.10069169104099285,0.9020664691925049,1.5792802572250366,0.5465471148490918,10.00961685180664
1785985344.7102697,-0.0013579053338617086,0.08370911329984676,0.8901699185371399,-0.2570955455303192,0.5278730392456067,10.039305686950684
1785985344.7289283,-0.00428963266313076,0.08205280452966701,0.9043929576873779,-0.7667264342308044,0.13274759054184077,9.56679916381836
1785985344.7541447,0.008011458441615105,0.054680496454239,0.9058025479316711,-0.7667264342308044,0.13274759054184077,9.56679916381836
1785985344.7701414,0.019101321697235107,0.04897598549723636,0.9049293994903564,-2.7232847213745117,0.8761383891105664,9.772942543029785
1785985344.7902653,-0.009640195406973362,0.05966899544000637,0.8885309100151062,0.15098442137241364,0.4338632822036755,9.706395149230957
1785985344.83013,-0.012025665491819382,0.06434062123298656,0.9070736169815063,-3.5571932792663574,0.459684491157533,10.215874671936035
1785985344.853923,-0.01770763099193573,0.06698188930749904,0.9128046035766602,-0.5788821578025818,0.28752645850181696,9.62453842163086
1785985344.8703141,-0.015047484077513218,0.0565619282424451,0.9069305658340454,-1.221701741218567,0.3899511992931378,10.05530071258545
1785985344.8893135,0.024211719632148743,0.05561381205916416,0.9085490107536316,-1.221701741218567,0.3899511992931378,10.05530071258545
1785985344.9289825,0.02427876926958561,0.019969070330262295,0.9105390310287476,-0.43771785497665405,0.7464359402656566,9.372133255004883
1785985344.9542174,0.05534785985946655,0.026086252182722206,0.9286302924156189,-0.43771785497665405,0.7464359402656566,9.372133255004883
1785985344.9902031,0.009799580089747906,0.012279314920306319,0.9239798188209534,1.1491870880126953,0.9177712202072156,9.851421356201172
1785985345.0104706,-0.007590112276375294,-0.002163587603717929,0.9250069260597229,-1.2984257936477661,0.6423140168190015,9.81009292602539
1785985345.0521321,-0.0225080419331789,0.022706089541316147,0.9427618980407715,-0.0007032677531242371,0.4974456429481518,9.549385070800781
1785985345.0693588,-0.0409824512898922,0.05949752777814877,0.94652259349823,-0.0007032677531242371,0.4974456429481518,9.549385070800781
1785985345.0908186,-0.04408809170126915,0.0949397310614587,0.9541934728622437,1.2691962718963623,-0.44359707832336315,9.29185962677002
1785985345.1096675,-0.041903942823410034,0.09975825995206845,0.9671341180801392,-0.2798018157482147,1.4336647987365734,9.73644733428955
1785985345.1300085,-0.06387555599212646,0.11737583577632917,0.981304407119751,-0.13772714138031006,0.30835980176925776,9.731544494628906
1785985345.152693,-0.03150511905550957,0.1214156970381738,0.9671120643615723,-0.038413625210523605,0.4733489453792584,10.10422134399414
1785985345.169578,-0.018757198005914688,0.11175770312547696,0.983648955821991,-0.541706919670105,0.5500400066375745,9.659464836120605
1785985345.188771,-0.06349565833806992,0.07061512023210538,0.9957164525985718,-0.541706919670105,0.5500400066375745,9.659464836120605
1785985345.2093017,-0.04838477820158005,0.04559776932001126,0.9781180620193481,-0.20008032023906708,0.3700931966304791,9.943559646606445
1785985345.2298627,-0.036695998162031174,0.03839287906885159,0.9896076917648315,-0.07716391235589981,0.139380753040315,10.314774513244629
1785985345.253082,-0.04857642203569412,0.013431802392006042,0.9877033829689026,-0.40589651465415955,0.4676856696605694,9.659867286682129
1785985345.2702007,-0.05459222197532654,-0.04492453858256328,0.978344738483429,-1.5997155904769897,1.1624045372009288,9.681461334228516
1785985345.2897003,-0.017554935067892075,-0.0696558579802512,0.9520715475082397,0.39115557074546814,0.7526055574417126,9.626253128051758
1785985345.3093593,-0.02107236348092556,-0.05857944488525379,0.9611873626708984,0.39115557074546814,0.7526055574417126,9.626253128051758
1785985345.3288035,-0.03320794552564621,-0.08426794409751881,0.9543658494949341,0.39115557074546814,0.7526055574417126,9.626253128051758
1785985345.352688,-0.007278743665665388,-0.09812480211257923,0.9456972479820251,0.7703491449356079,-0.8643261790275562,9.88807487487793
1785985345.3889222,-0.07197947800159454,-0.05726011842489231,0.9482564926147461,-0.09221938252449036,0.1822295039892209,10.023744583129883
1785985345.4122,-0.12414728105068207,-0.03320256993174541,0.9393519163131714,-1.199173927307129,1.292237401008607,9.480976104736328
1785985345.4303138,-0.1296927034854889,-0.04271758720278728,0.9353768229484558,1.7683169841766357,0.017395503818990025,9.999290466308594
1785985345.4695816,-0.16536717116832733,0.005445545073598738,0.9377491474151611,-1.304505467414856,0.8564971685409557,9.188994407653809
1785985345.4909096,-0.1470964252948761,0.01981860771775257,0.9311389327049255,-1.4514418840408325,1.2054363489151012,9.537908554077148
1785985345.510983,-0.11620283126831055,0.03183280304074299,0.9369504451751709,1.0576364994049072,-0.7576032280921924,10.346481323242188
1785985345.5299742,-0.1208638921380043,0.02612170390784752,0.9327456951141357,-0.24489319324493408,0.36710578203201416,9.969073295593262
1785985345.5527544,-0.10695397108793259,0.010277119465172405,0.9342502951622009,2.0499205589294434,-1.2515410184860216,10.468843460083008
1785985345.5693827,-0.08734720200300217,0.011648515239358061,0.9260089993476868,-2.736433982849121,0.9079318046569836,9.843074798583984
1785985345.590353,-0.09936121851205826,-0.0016406042268498578,0.9419571161270142,-1.246156096458435,0.7081661224365247,10.070770263671875
1785985345.6089156,-0.10811151564121246,-0.007725525647401695,0.9320895671844482,-2.959040641784668,0.9633322358131421,9.687400817871094
1785985345.6302207,-0.10471496731042862,-0.004912028554826863,0.9142237901687622,-1.303635597229004,0.5016802549362195,10.081700325012207
1785985345.651878,-0.12360194325447083,0.00020700201275769637,0.9139298796653748,-1.303635597229004,0.5016802549362195,10.081700325012207
1785985345.670463,-0.16475774347782135,0.01665833778679382,0.9188849329948425,-1.2202345132827759,0.7030730247497571,10.029987335205078
1785985345.6905665,-0.15658347308635712,0.03711726516485225,0.9057992100715637,-0.7597559690475464,0.757926106452943,9.486617088317871
1785985345.709682,-0.14760568737983704,0.027257537469267956,0.8985392451286316,-0.10822342336177826,0.6153615713119519,9.833728790283203
1785985345.7290068,-0.16723568737506866,0.07826755195856105,0.9040054082870483,-0.7520108819007874,0.33652403950691345,9.984456062316895
1785985345.75405,-0.17495019733905792,0.11749954521656047,0.903899610042572,-0.32792359590530396,0.44697529077530024,9.598458290100098
1785985345.7704701,-0.15125662088394165,0.13298733532428753,0.9059152603149414,-1.3098633289337158,1.5140221118927013,9.526508331298828
1785985345.7903135,-0.15240760147571564,0.13455218076705944,0.9156736135482788,-0.23036973178386688,0.3154890537261975,10.169848442077637
1785985345.8303719,-0.07747559994459152,0.12827722728252422,0.8984907269477844,-0.23036973178386688,0.3154890537261975,10.169848442077637
1785985345.8530521,-0.01743731088936329,0.13219407200813305,0.8907306790351868,0.023018863052129745,0.7137366533279431,9.807135581970215
1785985345.8699791,-0.018104342743754387,0.1555491089820863,0.9022446870803833,0.023018863052129745,0.7137366533279431,9.807135581970215
1785985345.8891027,0.00690919766202569,0.15808053314685833,0.8825953006744385,-1.6294792890548706,1.0728645324707042,9.673831939697266
1785985345.9111195,0.018600067123770714,0.17420780658721935,0.8708944916725159,0.03391227126121521,0.17691692709922918,10.435473442077637
1785985345.9296496,0.011829772964119911,0.20100802183151256,0.8613439798355103,-3.1656126976013184,0.5510466098785413,9.940083503723145
1785985345.952161,-0.022461935877799988,0.17858749628067028,0.8575987219810486,-1.2432241439819336,0.8995339870452893,9.979267120361328
1785985345.9692826,-0.011209357529878616,0.15150825679302227,0.8648008108139038,-1.2747514247894287,0.5726886391639722,9.73538875579834
1785985345.9902167,-0.023697756230831146,0.13018670678138744,0.8423213362693787,-0.18298053741455078,0.41576725244522217,9.969989776611328
1785985346.0117908,-0.04858837276697159,0.11146869510412226,0.8443199396133423,1.3940722942352295,0.2733886241912854,9.963644027709961
1785985346.0304587,-0.06440269201993942,0.10036864876747141,0.8420974016189575,-0.21379998326301575,0.5429225564003003,9.630254745483398
1785985346.0536957,-0.033468835055828094,0.07889366149902353,0.8088431358337402,2.1691157817840576,-0.6922476887702929,10.794878005981445
1785985346.070418,-0.03547368198633194,0.04775718227028857,0.8289570808410645,0.4078318774700165,0.6457296013832104,10.004510879516602
1785985346.0906088,-0.0487782247364521,0.04862743243575106,0.8181625008583069,0.47442948818206787,0.8398896455764783,9.824639320373535
1785985346.1098294,-0.03221302106976509,0.02116364240646372,0.7949855923652649,-0.43357619643211365,0.11117671430111054,9.971000671386719
1785985346.128611,-0.03922136127948761,0.03540490567684183,0.7911750078201294,-0.18257802724838257,0.704621732234956,9.700416564941406
1785985346.1545238,-0.05907203629612923,0.015893606469035246,0.8009352684020996,0.3642069399356842,0.5544348955154431,10.083090782165527
1785985346.1703448,-0.04165630042552948,0.0007124596158974827,0.7788482904434204,0.3642069399356842,0.5544348955154431,10.083090782165527
1785985346.212667,0.011858104728162289,-0.010189299471676258,0.7532349824905396,-1.3748328685760498,1.237158298492433,10.012701034545898
1785985346.2541678,-0.0008293739520013332,-0.019921649247407823,0.743386447429657,2.6178019046783447,-1.21193492412567,11.101638793945312
1785985346.2703946,0.02829691395163536,-0.03386951610445967,0.7303019165992737,2.315370559692383,0.4228189885616314,9.44958782196045
1785985346.2902157,0.013314752839505672,-0.02588978223502627,0.726111114025116,-2.6609671115875244,1.3089766502380382,8.99000072479248
1785985346.3293347,-0.0026505531277507544,-0.02812006697058669,0.7025389671325684,-0.2955932915210724,0.5381829142570508,9.679990768432617
1785985346.351933,-0.020905988290905952,-0.012301219627261077,0.6957974433898926,-0.24976927042007446,0.8550065159797681,10.02993106842041
1785985346.3702688,-0.02544342167675495,0.0113668469712139,0.6846243143081665,0.050108470022678375,0.2768037021160138,10.116565704345703
1785985346.3906016,-0.03704627975821495,0.013199510984122836,0.6749237179756165,-0.09149166196584702,0.4879691004753125,9.990392684936523
1785985346.4116037,-0.05189134553074837,0.036841858178377235,0.6624500751495361,-0.6159666776657104,0.5622116923332227,9.548685073852539
1785985346.4303174,-0.06333979964256287,0.0370550788939,0.6600212454795837,-0.6159666776657104,0.5622116923332227,9.548685073852539
1785985346.4529355,-0.07093801349401474,0.031130557879805645,0.6515960097312927,-0.6159666776657104,0.5622116923332227,9.548685073852539
1785985346.469415,-0.06541548669338226,0.05254670605063446,0.6453158259391785,-0.12152726948261261,0.4933968484401715,9.919750213623047
1785985346.5116167,-0.0688694566488266,0.044876515865326004,0.6307665109634399,-0.2637729346752167,0.7213642597198499,9.548357009887695
1785985346.5285578,-0.05458234250545502,0.06696933507919318,0.6201974153518677,-0.7013354897499084,1.0177438259124767,9.40678882598877
1785985346.571377,-0.05621134489774704,0.05661977827548988,0.6040492057800293,-0.7013354897499084,1.0177438259124767,9.40678882598877
1785985346.5903676,-0.038270898163318634,0.04055560752749451,0.5992899537086487,-0.7013354897499084,1.0177438259124767,9.40678882598877
1785985346.6308732,-0.05393582955002785,0.030599899590015484,0.5917205214500427,-1.1309279203414917,-0.17756623029708743,9.700543403625488
1785985346.6532185,-0.05120294168591499,0.022690068930387566,0.5762071013450623,0.07265030592679977,0.3421934545040143,10.049539566040039
1785985346.691157,-0.014920824207365513,0.035400785505771706,0.5493316650390625,-0.36379069089889526,0.4668593406677258,9.705381393432617
1785985346.7096925,-0.021079344674944878,0.025647826492786477,0.5544451475143433,-0.3223947584629059,0.5844967365264904,9.511610984802246
1785985346.7525883,-0.029949605464935303,0.050790324807167116,0.5291995406150818,0.4311995506286621,0.29797190427780273,10.06982421875
1785985346.7692783,-0.03581928461790085,0.050065726041793886,0.5246946215629578,-2.7210705280303955,0.7773633003234874,9.215085983276367
1785985346.7903814,-0.04096129536628723,0.0532845705747605,0.5081595778465271,-1.7512850761413574,0.4872734546661389,9.844762802124023
1785985346.8176913,-0.04539879038929939,0.0626924335956574,0.5050647258758545,-0.1824512928724289,0.273378908634187,9.897848129272461
1785985346.8315172,-0.05913817137479782,0.052489548921585145,0.49519458413124084,0.23070523142814636,0.36459270119667175,9.934096336364746
1785985346.853564,-0.06969931721687317,0.04281798750162131,0.4851708710193634,0.13709726929664612,0.2501921653747571,10.054168701171875
1785985346.8699777,-0.07520837336778641,0.03990716487169272,0.48656508326530457,0.10581479221582413,0.11350494623184328,10.124871253967285
1785985346.8900506,-0.06102416291832924,0.038835871964693125,0.4578852355480194,0.6760125756263733,0.37463611364364746,9.76530933380127
1785985346.9088392,-0.06912655383348465,0.033242654055357035,0.4557344317436218,-0.5434591770172119,0.5201302170753491,9.73094654083252
1785985346.9302163,-0.08322244137525558,0.02324118465185171,0.4537726044654846,-0.9955738186836243,1.4126381874084484,9.616498947143555
1785985346.9543328,-0.08519930392503738,0.021999483928084426,0.4312703609466553,-0.9955738186836243,1.4126381874084484,9.616498947143555
1785985346.9885423,-0.07888533920049667,0.0369186364114285,0.4219842255115509,0.3687303960323334,0.1455536931753171,10.141929626464844
1785985347.054129,-0.0632258877158165,0.03595222532749181,0.371601939201355,-1.238611102104187,1.014982581138612,9.631267547607422
1785985347.0881495,-0.07269611209630966,0.06407581269741063,0.35431355237960815,-0.5010411143302917,0.47694519162178156,9.68425464630127
1785985347.1103828,-0.08045610040426254,0.024618843570351642,0.34558531641960144,0.4119167923927307,0.26565095782280096,10.25507926940918
1785985347.1292288,-0.09742018580436707,0.022142546251416248,0.3399948179721832,-0.1965753585100174,0.5764244794845593,9.91769027709961
1785985347.1517737,-0.07993493229150772,0.033080123364925426,0.3194727301597595,1.399500846862793,-0.9231357574462877,11.116690635681152
1785985347.1689975,-0.055745575577020645,0.025261845439672508,0.31573501229286194,-1.4165217876434326,0.5592428445816052,9.822606086730957
1785985347.1908238,-0.06148923933506012,0.0185953509062529,0.30843856930732727,-0.15478616952896118,0.5993981361389172,9.841682434082031
1785985347.2123818,-0.0575370155274868,0.048401482403278386,0.29566076397895813,0.8483357429504395,-0.11435826867818705,10.374424934387207
1785985347.230404,-0.040447819977998734,0.03338090702891353,0.2813452184200287,1.1167194843292236,-0.2955761551856982,10.573506355285645
1785985347.2540603,-0.05523793026804924,0.01600440032780174,0.2732005715370178,-0.24471847712993622,0.40446886420250056,9.742212295532227
1785985347.2701452,-0.05064834654331207,0.017766352742910416,0.2477995604276657,-0.43252691626548767,0.6225097775459302,9.697936058044434
1785985347.288168,-0.052180539816617966,0.024813499301672013,0.24644039571285248,-1.4299311637878418,0.5459849834442151,9.950220108032227
1785985347.3092403,-0.04405011981725693,0.023163236677646665,0.23332802951335907,0.17530466616153717,0.2390152364969266,10.086308479309082
1785985347.330055,-0.06145770847797394,0.0301859509199858,0.21597790718078613,-0.5864397883415222,0.5996641516685498,9.672924041748047
1785985347.352678,-0.052557315677404404,0.026616757735610033,0.20366254448890686,-1.276473879814148,0.6567990779876721,9.89399528503418
1785985347.368839,-0.05619147792458534,0.015820171684026742,0.2000642865896225,-1.3109461069107056,1.4718234539031994,9.622783660888672
1785985347.3903818,-0.044327687472105026,0.000102399382740281,0.17833423614501953,-0.20619846880435944,0.3476863205432904,10.113216400146484
1785985347.4115264,-0.04112200811505318,0.06261268258094789,0.16586554050445557,-0.254942387342453,0.3995884954929364,9.953536033630371
1785985347.4303906,-0.04162523150444031,0.08578047901391984,0.15873564779758453,-0.254942387342453,0.3995884954929364,9.953536033630371
1785985347.4526186,-0.04880469664931297,0.14408838748931888,0.14259466528892514,-0.07116954028606415,0.13890406489372378,10.209677696228027
1785985347.4691577,-0.05384894832968712,0.23314657807350161,0.14039757847785947,-0.07116954028606415,0.13890406489372378,10.209677696228027
1785985347.4895403,-0.05386212468147278,0.3210541307926178,0.1231574639678001,-0.13555295765399933,0.34789377450943115,9.763373374938965
1785985347.510157,-0.06625184416770935,0.36468786001205444,0.12014814466238018,0.5685890316963196,0.8245406150817883,9.649842262268066
1785985347.5291834,-0.0939721167087555,0.4198708236217499,0.11325315386056894,0.13822202384471893,0.3562003672122968,10.248724937438965
1785985347.5541027,-0.06718651205301285,0.4757378399372101,0.09412834793329233,-0.19970282912254333,0.33575966954231384,10.014423370361328
1785985347.5881832,-0.08204285800457001,0.5033348202705383,0.08355524390935892,0.04444732144474983,0.5167874097824109,10.210857391357422
1785985347.6290462,-0.09217672795057297,0.5190876722335815,0.0787358954548835,0.04444732144474983,0.5167874097824109,10.210857391357422
1785985347.6540112,-0.09741944819688797,0.48948946595191956,0.07325588911771769,2.346269130706787,-0.4634185731410968,10.14857006072998
1785985347.670027,-0.0925508588552475,0.4900200068950653,0.06983526051044459,-0.2183779627084732,0.32660090923309454,10.294140815734863
1785985347.6882324,-0.07765866816043854,0.4692511260509491,0.061198014765977804,0.48821908235549927,0.04140721261501439,10.349275588989258
1785985347.7102427,-0.054336659610271454,0.4513327181339264,0.05058100819587702,-0.4636996388435364,0.6081125736236584,9.952170372009277
1785985347.7303689,-0.059355031698942184,0.4341917634010315,0.046504575759172384,-0.36803752183914185,0.8274026513099683,9.710856437683105
1785985347.752759,-0.043151430785655975,0.3976345956325531,0.04535328224301333,-0.36803752183914185,0.8274026513099683,9.710856437683105
1785985347.769933,-0.0330849215388298,0.3680281341075897,0.04913590848445888,-0.47959834337234497,0.4840605854988111,10.259367942810059
1785985347.7895586,-0.031217209994792938,0.3466331362724304,0.03035549074411388,-0.26654425263404846,0.6700397729873669,9.88680362701416
1785985347.818347,-0.01196554396301508,0.3118197023868561,0.029788708314299545,0.01548193022608757,0.5650840401649487,9.81497573852539
1785985347.8301167,-0.000992567976936698,0.2788836658000946,0.033150739967822994,-0.24826876819133759,0.6304246783256543,9.826227188110352
1785985347.8513396,0.023267216980457306,0.2875986695289612,0.016554186120629276,-0.34267497062683105,0.3098859190940869,9.934414863586426
1785985347.867677,-0.01467787753790617,0.2875059247016907,0.030073370784521068,-0.05984820798039436,0.07802347838878754,10.011967658996582
1785985347.8911805,-0.021359732374548912,0.26217201352119446,0.020009882748126952,1.2041696310043335,0.1170215010643018,10.342392921447754
1785985347.9100976,0.0030641010962426662,0.2509355843067169,0.015506747178733318,-0.47292497754096985,0.4161378741264356,10.350264549255371
1785985347.9301147,0.007637102156877518,0.2592659592628479,0.024144647642970054,-0.2543957233428955,0.053490921854974095,10.245184898376465
1785985347.9521563,-0.03366982564330101,0.21216490864753723,0.024889484047889685,-0.3298060894012451,0.7179710865020764,10.102797508239746
1785985347.9690552,-0.015546024776995182,0.23648479580879211,0.021947655826806994,-0.3298060894012451,0.7179710865020764,10.102797508239746
1785985347.9904623,-0.02240486443042755,0.23119127750396729,0.01808506250381467,-1.2862879037857056,0.29729795455932745,10.266334533691406
1785985348.0123143,-0.03692414239048958,0.20520754158496857,0.014932557940483069,-1.097987413406372,0.8071716427803052,9.899053573608398
1785985348.069876,-0.03450274467468262,0.1866687685251236,0.009835547767579533,-0.39533084630966187,0.3112912774086011,9.974675178527832
1785985348.1103125,0.009881464764475822,0.17285513877868652,0.005467311944812515,-2.8238332271575928,0.21705561876297133,10.996050834655762
1785985348.1301985,-0.0005114302039146423,0.15534013509750366,0.011151623912155609,-1.2664238214492798,0.08918888866901525,10.392599105834961
1785985348.1691856,-0.009524687193334103,0.15351824462413788,0.009690415114164333,-0.4242996275424957,0.3860414624214185,10.266900062561035
1785985348.1903646,-0.03395140916109085,0.12064610421657562,0.014313478022813781,-0.5638529062271118,0.0018074810504926336,10.620479583740234
1785985348.2106354,-0.04226016625761986,0.10481643676757812,0.008106201887130725,-0.6897546052932739,0.3589423894882215,10.41556167602539
1785985348.2298245,-0.02890649065375328,0.10257239639759064,0.01469664368778466,-1.511222243309021,1.3665384054183973,9.985211372375488
1785985348.2516315,-0.026813194155693054,0.09400826692581177,0.01718454062938689,1.9139738082885742,-0.06214182451367255,10.090121269226074
1785985348.269265,-0.04998624697327614,0.10980378836393356,0.0038482930976897344,-0.4537152349948883,0.288759380578996,10.5369234085083
1785985348.2901504,-0.04277642443776131,0.06537777185440063,0.02201529219746589,-0.9448716640472412,0.1115712225437177,10.275586128234863
1785985348.3090792,0.006543164141476154,0.06921876221895218,0.01056198962032794,-0.4027296006679535,0.21225719153881203,10.608626365661621
1785985348.3291948,0.004098165780305862,0.06984462589025497,0.014747342094779006,-0.4783187210559845,0.21207514405250677,10.447064399719238
1785985348.354021,0.001803151797503233,0.042791370302438736,0.015908183529973023,-0.838149905204773,0.4852665960788739,9.976210594177246
1785985348.3708827,0.00112940464168787,0.05870626866817475,0.031513098627328866,-0.7005627155303955,0.18282079696655407,10.938603401184082
1785985348.3892412,-0.019065529108047485,0.04587122425436975,0.13069142401218414,-0.3730906546115875,0.3905356228351606,10.353679656982422
1785985348.4106057,-0.10296333581209183,0.028054498136043583,0.28375205397605896,-2.72589111328125,1.098622798919679,10.635432243347168
1785985348.4301903,-0.19611474871635437,0.01763017848134046,0.4158532917499542,-0.09892907738685608,-0.6562795042991626,10.397818565368652
1785985348.4522872,-0.21980677545070648,-0.028667140752077037,0.5326424241065979,-1.8616867065429688,-0.16973376274108753,10.880661964416504
1785985348.4701169,-0.253643274307251,-0.0529722794890403,0.6320372223854065,-1.8616867065429688,-0.16973376274108753,10.880661964416504
1785985348.4884522,-0.2899490296840668,-0.10210961103439321,0.7766308188438416,0.9218135476112366,0.783483147621156,10.065174102783203
1785985348.510382,-0.2534855604171753,-0.1478457748889922,0.9085624814033508,-2.2014920711517334,0.7372142672538771,10.671605110168457
1785985348.551521,-0.2513338625431061,-0.26755288243293746,1.1623544692993164,-2.2014920711517334,0.7372142672538771,10.671605110168457
1785985348.5691268,-0.265245258808136,-0.3261639475822447,1.2513927221298218,-0.42408308386802673,-0.06742522865533701,10.446257591247559
1785985348.6099648,-0.3639383912086487,-0.3563676774501799,1.412715196609497,-0.6202991008758545,0.9383891820907604,9.512348175048828
1785985348.6301572,-0.4154514968395233,-0.3423649072647093,1.5383052825927734,-2.9847710132598877,1.1704639196395887,10.226303100585938
1785985348.6541889,-0.4179856777191162,-0.34845414757728554,1.636936068534851,-0.5598827600479126,0.11927719414234293,10.78769302368164
1785985348.6698391,-0.42513149976730347,-0.34515070915222146,1.6962138414382935,0.8322882056236267,-0.04184672236442443,10.04646110534668
1785985348.6894746,-0.4554603099822998,-0.3128436505794523,1.8100390434265137,-1.6956475973129272,1.5398187637329115,10.295633316040039
1785985348.708734,-0.41250157356262207,-0.32092124223709084,1.8819506168365479,0.7010211944580078,0.21716243028640878,10.616801261901855
1785985348.7290962,-0.4167541563510895,-0.3036700189113615,1.9353299140930176,-2.510035514831543,1.2348735332489025,9.79379940032959
1785985348.7508872,-0.4601903557777405,-0.2757088541984556,1.998099684715271,-2.510035514831543,1.2348735332489025,9.79379940032959
1785985348.7701044,-0.4354260265827179,-0.2650602161884305,2.0651180744171143,-2.510035514831543,1.2348735332489025,9.79379940032959
1785985348.7886999,-0.3961591422557831,-0.25265228748321505,2.112461805343628,-2.1021275520324707,1.4067201614379894,9.956927299499512
1785985348.8283937,-0.40277743339538574,-0.2338058650493619,2.2460708618164062,0.938334584236145,-0.08514292538165931,9.452674865722656
1785985348.851939,-0.37770822644233704,-0.2278288155794141,2.3121867179870605,-0.3670520782470703,0.07898651063442345,9.418563842773438
1785985348.86943,-0.3938039243221283,-0.17320388555526706,2.3463194370269775,0.2693077027797699,0.14178223907947657,9.467537879943848
1785985348.8902562,-0.41508030891418457,-0.11996047198772403,2.280658721923828,-0.8464809060096741,0.5181488990783704,9.928831100463867
1785985348.9101872,-0.3710266649723053,-0.019748592749237744,2.201908588409424,1.287950038909912,-0.01563663966953631,10.082418441772461
1785985348.9282637,-0.32445138692855835,0.06256584078073528,2.1207141876220703,-1.0526410341262817,0.9363091588020337,9.989419937133789
1785985348.9537046,-0.2531607449054718,0.1162067130208018,2.0169639587402344,-2.872328042984009,1.2941431999206554,9.621920585632324
1785985348.9688158,-0.16889376938343048,0.153592571616173,1.9243155717849731,-2.872328042984009,1.2941431999206554,9.621920585632324
1785985348.9903586,-0.041360992938280106,0.17218950390815757,1.8302024602890015,-1.4613016843795776,0.7732602357864392,9.547476768493652
1785985349.011333,0.007404451258480549,0.2158014476299288,1.7455108165740967,-0.667721152305603,0.6053031682968152,9.980053901672363
1785985349.0301244,-0.05989028513431549,0.2554135620594027,1.6636302471160889,-0.9453104734420776,0.44023782014846924,10.069724082946777
1785985349.0517287,-0.06857027858495712,0.2776674628257753,1.578264594078064,-1.5728615522384644,0.7077493667602551,9.590550422668457
1785985349.0703683,-0.12025534361600876,0.2875961661338808,1.4998061656951904,-0.9889233112335205,0.3221179842948926,10.18050765991211
1785985349.1095018,-0.31402936577796936,0.2579837143421175,1.3528441190719604,-1.0201261043548584,1.1565721035003673,9.490419387817383
1785985349.1294749,-0.3856778144836426,0.2374465614557268,1.2808245420455933,-0.44802528619766235,0.25598794221878174,10.046930313110352
1785985349.1515596,-0.4662991762161255,0.18933098018169417,1.2062602043151855,0.08717308938503265,0.44567301869392517,9.854045867919922
1785985349.1700568,-0.5114887952804565,0.14935421943664565,1.1427669525146484,-2.0536317825317383,0.6711335182189954,9.909567832946777
1785985349.1898458,-0.5384383201599121,0.11644335091114058,1.0803680419921875,0.050811126828193665,0.5277656316757215,10.547469139099121
1785985349.2101042,-0.5918300747871399,0.13524375855922713,1.0256154537200928,-1.3466607332229614,0.9497450590133679,9.986384391784668
1785985349.2301786,-0.647704541683197,0.16925112903118145,0.9698427319526672,-1.5001771450042725,0.8886188864707959,9.876703262329102
1785985349.2514896,-0.6437100768089294,0.1830759197473527,0.9239715933799744,-1.2303566932678223,0.7874143123626721,10.334373474121094
1785985349.2701912,-0.6298997402191162,0.2287660688161851,0.8470442891120911,-1.2303566932678223,0.7874143123626721,10.334373474121094
1785985349.3089886,-0.5512251257896423,0.22245110571384438,0.7436792254447937,-1.2303566932678223,0.7874143123626721,10.334373474121094
1785985349.3284419,-0.5065464377403259,0.2181994020938874,0.6867276430130005,-1.3441931009292603,0.6838033199310315,9.954333305358887
1785985349.3703299,-0.4157785475254059,0.18930201232433327,0.5818904638290405,-1.003410816192627,0.9357554316520703,10.219771385192871
1785985349.3886018,-0.34495246410369873,0.18072211742401129,0.539397656917572,-1.282755970954895,0.9292985796928419,10.622072219848633
1785985349.4114103,-0.29880470037460327,0.17846146225929266,0.4853171408176422,-1.4362232685089111,0.9087406992912306,10.662476539611816
1785985349.4525466,-0.20579738914966583,0.118614211678505,0.40797120332717896,-0.01573241502046585,0.2927865684032453,10.415037155151367
1785985349.488113,-0.23242460191249847,0.0504929423332215,0.49402013421058655,-1.7280288934707642,1.368480682373048,9.630431175231934
1785985349.5101311,-0.30333977937698364,0.0011870100861416004,0.602682888507843,-0.897811233997345,1.225882172584535,10.12015151977539
1785985349.5284667,-0.3817054331302643,0.025984263047576034,0.6872544884681702,-1.442131519317627,1.0488636493682875,10.418856620788574
1785985349.5541835,-0.4657498598098755,0.019681645557284456,0.8334797024726868,0.1850530207157135,1.1114547252655043,11.074042320251465
1785985349.5704987,-0.46858012676239014,-0.025609634816646465,0.9148120880126953,-0.1715417057275772,1.2114067077636732,10.73094367980957
1785985349.5886436,-0.45637205243110657,-0.0691551789641379,0.9997016191482544,-0.6290895938873291,1.0147635936737074,10.598702430725098
1785985349.6303658,-0.47316208481788635,-0.16678306460380538,1.256895661354065,-0.7863044738769531,0.4468545317649854,10.482739448547363
1785985349.6517076,-0.44890764355659485,-0.24020119011402113,1.3291021585464478,-0.47239238023757935,0.9033051729202282,9.44979476928711
1785985349.690197,-0.5317405462265015,-0.3396592140197752,1.544603943824768,-0.8315848708152771,0.9162087440490736,10.642374992370605
1785985349.7087379,-0.477456271648407,-0.39825910329818703,1.632418155670166,-2.5069334506988525,1.2376477718353285,10.144930839538574
1785985349.7312493,-0.48138806223869324,-0.4363439381122587,1.7202436923980713,0.8534308075904846,0.5401499271392834,10.282833099365234
1785985349.7538064,-0.5154725313186646,-0.3969910144805906,1.8445827960968018,-0.8798257112503052,1.0021762847900402,9.347871780395508
1785985349.770091,-0.4874597191810608,-0.37011212110519387,1.8975732326507568,-2.3835628032684326,1.645482897758485,9.779214859008789
1785985349.788435,-0.4478153884410858,-0.31086471676826455,1.948011875152588,-2.983583688735962,1.8970777988433851,10.393152236938477
1785985349.81303,-0.41719117760658264,-0.23346260190010046,2.015198230743408,-2.983583688735962,1.8970777988433851,10.393152236938477
1785985349.8282409,-0.4237018823623657,-0.1860771626234052,2.083721876144409,1.4589253664016724,0.6370820403099072,9.931132316589355
1785985349.852559,-0.3594648241996765,-0.09928909689187977,2.1445326805114746,-3.8427042961120605,1.0104793310165419,10.209969520568848
1785985349.8898022,-0.4054863154888153,0.010389940813184062,2.262402057647705,0.5895565748214722,1.0918694734573378,10.031200408935547
1785985349.9103534,-0.40305089950561523,0.019277242943644805,2.299211263656616,-0.0334174670279026,0.7192772030830396,10.098414421081543
1785985349.9305496,-0.4657895863056183,0.024524128064513494,2.3392627239227295,2.5645790100097656,0.3937995135784162,10.5193452835083
1785985349.9530888,-0.5305852293968201,-0.008267161436378666,2.36605167388916,1.8387117385864258,0.5571731328964247,10.707098960876465
1785985349.9699328,-0.49979251623153687,-0.030497707426547713,2.388869524002075,1.3264483213424683,0.6546279191970837,10.079485893249512
1785985349.9881577,-0.449110746383667,0.013723310083151148,2.3211913108825684,-0.030152682214975357,0.7740498781204236,10.220073699951172
1785985350.0295024,-0.3106493651866913,0.05319041013717678,2.1321234703063965,-2.5682132244110107,0.20554918050766124,10.817192077636719
1785985350.070159,-0.17358087003231049,0.13997012376785303,1.947135090827942,1.239500880241394,-0.0001964680850492163,11.159064292907715
1785985350.088741,-0.18314282596111298,0.17605820298194907,1.8703163862228394,0.3803745210170746,0.3682493567466749,10.9010591506958
1785985350.11037,-0.16957400739192963,0.20127846300601981,1.7606741189956665,-0.8067489862442017,1.3336160182952892,9.290843963623047
1785985350.1295125,-0.1850602775812149,0.17638315260410328,1.691615343093872,-1.2254873514175415,1.0696353912353527,9.370027542114258
1785985350.1522732,-0.24766501784324646,0.18114888668060322,1.590691089630127,-1.1004059314727783,1.1430708169937145,9.870924949645996
1785985350.168922,-0.27860039472579956,0.1968800127506258,1.5202568769454956,-0.48838838934898376,0.710811734199525,9.506571769714355
1785985350.1906974,-0.3006359934806824,0.17300593852996843,1.4294720888137817,-0.7708443999290466,0.6714138984680187,9.247495651245117
1785985350.212336,-0.3656606376171112,0.17184840142726915,1.3354347944259644,-2.8896586894989014,1.2214431762695326,10.004676818847656
1785985350.2291586,-0.4012288451194763,0.1659232825040819,1.2692811489105225,-0.8788207769393921,1.0760360956192028,9.836109161376953
1785985350.253604,-0.42407703399658203,0.1415585577487947,1.1878349781036377,-1.6707347631454468,0.9565377831459058,10.262328147888184
1785985350.2704651,-0.44586580991744995,0.12747283279895796,1.1252483129501343,0.057454343885183334,0.3920029699802411,10.149503707885742
1785985350.2900605,-0.4883441925048828,0.15829510986804976,1.0535211563110352,0.5410176515579224,0.24503459036350372,9.940431594848633
1785985350.3087995,-0.4766787588596344,0.1557825505733491,0.9924533367156982,-0.6606878042221069,0.9408662319183363,10.584769248962402
1785985350.330481,-0.4807870388031006,0.14965422451496135,0.9177088141441345,-0.8918896913528442,0.8520151972770703,10.264643669128418
1785985350.3522587,-0.49787452816963196,0.14631356298923504,0.8611347079277039,-0.8918896913528442,0.8520151972770703,10.264643669128418
1785985350.3904347,-0.4737679958343506,0.1365724205970765,0.751024603843689,-0.5366462469100952,0.8128038048744214,10.186711311340332
1785985350.4111054,-0.46080702543258667,0.16718585789203652,0.695997416973114,-0.5366462469100952,0.8128038048744214,10.186711311340332
1785985350.4299104,-0.46310093998908997,0.16425994038581856,0.6602581739425659,-0.7033246755599976,1.006596326828004,9.942061424255371
1785985350.4514744,-0.4489182233810425,0.18133702874183663,0.6109825968742371,-0.3742355704307556,0.827517390251161,10.676008224487305
1785985350.4690595,-0.4304341673851013,0.16877833008766183,0.5751166939735413,-0.4829140603542328,0.8178409934043896,10.350648880004883
1785985350.4910398,-0.40478622913360596,0.13849581778049475,0.5332908630371094,-0.9051222801208496,0.9062093496322645,10.818001747131348
1785985350.510355,-0.39828798174858093,0.10089927911758428,0.49776744842529297,-0.608586311340332,0.8781066536903394,9.775979995727539
1785985350.5699618,-0.3650034964084625,0.07019893079996115,0.4188331365585327,0.8515639305114746,0.5087441802024854,10.362540245056152
1785985350.5881774,-0.3828525245189667,0.05634138360619551,0.48741626739501953,0.09823663532733917,0.782324850559236,10.76569652557373
1785985350.6112208,-0.38450178503990173,0.014113332144916134,0.628680944442749,0.09823663532733917,0.782324850559236,10.76569652557373
1785985350.6280158,-0.38139355182647705,-0.007857639342546378,0.6932950019836426,-2.5532400608062744,0.6733214855194105,10.51357364654541
1785985350.6526716,-0.37432971596717834,0.010352621786296465,0.7944140434265137,0.9397631883621216,1.1954669952392591,10.184867858886719
1785985350.67009,-0.37300509214401245,0.022064952179789658,0.9244577884674072,-0.08861614018678665,1.3611485958099379,10.7513427734375
1785985350.6893125,-0.37731701135635376,0.012387336231768256,1.0237070322036743,-1.6191819906234741,1.2982231378555311,10.200000762939453
1785985350.7106133,-0.43619972467422485,0.007127570454031367,1.124449372291565,-1.517789363861084,0.8275039196014418,10.697588920593262
1785985350.7524827,-0.5684166550636292,-0.05149013549089415,1.3380075693130493,-1.517789363861084,0.8275039196014418,10.697588920593262
1785985350.7688642,-0.6241874098777771,-0.12652485072612746,1.4080865383148193,2.1413440704345703,0.89249885082245,10.355868339538574
1785985350.7876248,-0.6728894114494324,-0.18414826691150646,1.4807687997817993,0.7263107895851135,1.255048513412477,10.164337158203125
1785985350.8180428,-0.6934395432472229,-0.22525356709957103,1.631862759590149,0.7263107895851135,1.255048513412477,10.164337158203125
1785985350.852718,-0.6883400678634644,-0.31456804275512673,1.7392807006835938,-0.3212060332298279,0.9123879671096814,10.168329238891602
1785985350.8698525,-0.7005208134651184,-0.2994629442691801,1.7910150289535522,2.473133087158203,1.0766935348510753,9.848746299743652
1785985350.8891466,-0.6777012348175049,-0.29970911145210244,1.8698490858078003,0.4858088493347168,1.1996352672576918,10.257803916931152
1785985350.9105065,-0.65451979637146,-0.2928231358528135,1.9539668560028076,1.1262980699539185,1.0468220710754408,10.134620666503906
1785985350.9526486,-0.642306387424469,-0.2303981781005857,2.089817762374878,-0.4190570116043091,0.5034614801406873,9.92655086517334
1785985350.9691412,-0.616310179233551,-0.21616287529468511,2.124586582183838,0.3990309238433838,0.6193720698356641,9.70566463470459
1785985350.9903543,-0.5933712720870972,-0.17927899956703158,2.170071601867676,-0.5257088541984558,0.453638166189195,10.511396408081055
1785985351.0304112,-0.49281075596809387,-0.1347426772117612,2.268326759338379,-1.7559925317764282,0.9307554960250867,9.748997688293457
1785985351.0539923,-0.4402209222316742,-0.13469636440277072,2.314023017883301,0.9089668393135071,0.8523547649383557,10.213859558105469
1785985351.0707798,-0.4212159514427185,-0.10869283229112596,2.3275060653686523,1.2589002847671509,0.15889801084995395,10.209437370300293
1785985351.0898314,-0.38675662875175476,-0.03603714331984492,2.2406980991363525,0.15242990851402283,1.3353228569030773,9.652262687683105
1785985351.1109488,-0.2907216548919678,0.030901998281479142,2.135694980621338,-0.705399215221405,1.2192386388778698,9.846059799194336
1785985351.1291976,-0.25520217418670654,0.0677452608942988,2.0564677715301514,-0.434306800365448,0.9937913417816174,9.719305992126465
1785985351.1547258,-0.2479112446308136,0.10713352262973809,1.9629968404769897,0.06225838139653206,0.7670240998268141,10.529335975646973
1785985351.1697872,-0.22069276869297028,0.11273666471242928,1.8765510320663452,0.022983435541391373,0.9495602846145642,10.1974458694458
1785985351.1884246,-0.24747909605503082,0.13649435341358207,1.7851781845092773,-0.9572454690933228,0.7399201393127454,10.156255722045898
1785985351.2112906,-0.3018638491630554,0.13024428486824055,1.689337134361267,0.024707019329071045,0.5672599077224744,10.305624961853027
1785985351.2304215,-0.3462102711200714,0.13477693498134632,1.6061434745788574,-1.1817119121551514,0.7655779719352735,10.656547546386719
1785985351.2699103,-0.46201056241989136,0.13169640302658098,1.4485312700271606,-0.7553776502609253,0.6579602956771863,10.372939109802246
1785985351.2885964,-0.48358023166656494,0.1305882930755617,1.3727549314498901,-1.0206459760665894,0.9024168848991406,9.652722358703613
1785985351.3101408,-0.5117331147193909,0.11795771121978775,1.2929050922393799,0.20589768886566162,0.31143820285797247,10.403242111206055
1785985351.329324,-0.5491109490394592,0.12793603539466872,1.225840449333191,1.0797617435455322,-0.2085016071796403,11.615925788879395
1785985351.354032,-0.5860226154327393,0.1484814435243608,1.1492425203323364,-2.09377384185791,1.093738436698915,10.206756591796875
1785985351.3702142,-0.6063127517700195,0.11897325515747084,1.0866317749023438,0.2700880169868469,0.8540245294570936,10.576682090759277
1785985351.3894627,-0.6250923871994019,0.10615588724613202,1.0159664154052734,0.9502310156822205,0.3474381566047681,10.536675453186035
1785985351.4126241,-0.6175135374069214,0.08731547743082058,0.9437571167945862,-0.3891523778438568,0.7366266846656813,10.767075538635254
1785985351.4506664,-0.5766682624816895,0.11277085542678843,0.8354425430297852,-0.3891523778438568,0.7366266846656813,10.767075538635254
1785985351.4704053,-0.5516852140426636,0.07125446200370798,0.7758870720863342,1.9436829090118408,-0.3444163501262651,11.261494636535645
1785985351.4905488,-0.4733634293079376,0.08879297226667413,0.7207727432250977,-2.0607147216796875,1.321559786796571,9.624109268188477
1785985351.5103698,-0.38577842712402344,0.08792123943567284,0.6812534332275391,-1.0796080827713013,1.080949187278749,9.994696617126465
1785985351.5303051,-0.3561997413635254,0.1257391571998597,0.6369010210037231,-0.5338647961616516,0.8852058053016675,9.871878623962402
1785985351.553813,-0.29209721088409424,0.1747441142797471,0.597511887550354,-0.5338647961616516,0.8852058053016675,9.871878623962402
1785985351.5901577,-0.26786723732948303,0.20024561882019049,0.5255929827690125,-0.7693176865577698,0.9818546772003186,10.135293006896973
1785985351.6101465,-0.293098121881485,0.17890854179859167,0.49196067452430725,-0.5257902145385742,0.9278809428215039,10.053775787353516
1785985351.6296086,-0.276913046836853,0.12027817219495779,0.4559306204319,-0.5371951460838318,0.8248623609542859,10.27173137664795
1785985351.6514304,-0.28048765659332275,0.07277023047208792,0.4253133535385132,-0.6632857322692871,1.2385969161987316,9.681000709533691
1785985351.6698709,-0.3080171048641205,0.009228339418768937,0.4440092146396637,0.23489317297935486,0.922719478607179,10.176826477050781
1785985351.6880472,-0.32433241605758667,-0.03342229127883905,0.5134463906288147,0.9718515276908875,1.3540734052658094,10.379737854003906
1785985351.7114909,-0.39105933904647827,-0.026064155623316692,0.6087455749511719,0.8457500338554382,0.3949453830719007,10.618546485900879
1785985351.730263,-0.4236052632331848,-0.03910227492451659,0.7302373647689819,-2.495082139968872,1.2088606357574476,10.122564315795898
1785985351.7514696,-0.41832664608955383,-0.043785233050584696,0.8198707103729248,2.3469555377960205,1.057896971702577,10.128473281860352
1785985351.7703948,-0.4540077745914459,-0.04762832447886456,0.9083014726638794,-1.098514199256897,2.4516582489013685,10.036466598510742
1785985351.7885976,-0.4962518513202667,-0.039345104247331494,1.0466303825378418,-1.8124444484710693,0.516796946525575,10.242204666137695
1785985351.812397,-0.5739312767982483,-0.01920129172503934,1.1538934707641602,-1.787354826927185,1.0997252464294447,10.23978328704834
1785985351.8292713,-0.6449658870697021,-0.08409046381711945,1.242807149887085,-0.31585535407066345,0.9790067076683057,9.667765617370605
1785985351.8514166,-0.7339747548103333,-0.11790347844362242,1.3234282732009888,0.484909325838089,0.9360311627388013,10.258477210998535
1785985351.8701239,-0.784824550151825,-0.13634325563907607,1.4444677829742432,0.484909325838089,0.9360311627388013,10.258477210998535
1785985351.8881483,-0.7865632772445679,-0.1764650344848631,1.5260698795318604,0.6313454508781433,0.8767365217208876,10.493681907653809
1785985351.9105072,-0.7760794758796692,-0.2672697305679319,1.5968811511993408,1.2568227052688599,0.0749833956360829,9.877455711364746
1785985351.9290903,-0.761184811592102,-0.30655160546302773,1.710064172744751,2.3018546104431152,0.43063637614250305,9.857087135314941
1785985351.9513552,-0.6512296795845032,-0.39568272233009316,1.7803195714950562,1.2972471714019775,0.8357174992561353,9.817399024963379
1785985351.9698865,-0.5833441615104675,-0.4210117161273954,1.8420895338058472,0.1325833648443222,0.8181450366973889,9.605310440063477
1785985351.9885967,-0.5849753618240356,-0.3839345574378965,1.8815964460372925,1.0186265707015991,0.792389512062074,10.210636138916016
1785985352.0099404,-0.528515636920929,-0.3639496266841886,1.9769198894500732,0.03599798306822777,0.6377627253532422,9.530903816223145
1785985352.0292022,-0.4640294313430786,-0.3633407056331632,2.043013334274292,0.795737624168396,0.6572457551956189,9.929000854492188
1785985352.0540948,-0.4757556915283203,-0.27724796533584567,2.0701916217803955,0.520952045917511,1.055090665817262,10.002696990966797
1785985352.088064,-0.4741240441799164,-0.18738539516925784,2.181415557861328,0.3799644410610199,1.5159860849380504,9.8571138381958
1785985352.1105359,-0.49092623591423035,-0.1615334749221799,2.240204334259033,0.3799644410610199,1.5159860849380504,9.8571138381958
1785985352.1281116,-0.5901002883911133,-0.0908361002802846,2.2507951259613037,-2.9632833003997803,1.0397248268127453,9.432353973388672
1785985352.1530898,-0.6013805270195007,-0.03767522051930399,2.3222708702087402,-1.7644110918045044,0.5441867709159863,10.00612735748291
1785985352.1698167,-0.548971951007843,-0.0052950694225725676,2.314722776412964,0.573286235332489,0.8158735036849988,9.578548431396484
1785985352.1899228,-0.556758463382721,0.065041393041611,2.221137762069702,2.6050291061401367,1.2206062078475963,9.5491943359375
1785985352.2099426,-0.5075709223747253,0.12000580132007625,2.132422685623169,-4.004514694213867,1.434140205383302,9.525749206542969
1785985352.2301228,-0.40998804569244385,0.15133310854434992,2.0289933681488037,0.6798678636550903,0.6961106657981885,9.853694915771484
1785985352.2517598,-0.36784830689430237,0.1810747236013415,1.9526771306991577,1.9086432456970215,0.7962831258773816,10.094476699829102
1785985352.2699945,-0.36380627751350403,0.20925098657608054,1.8543766736984253,-0.3292955160140991,0.9969272017478955,9.757394790649414
1785985352.2897158,-0.35264578461647034,0.20682901144027732,1.7543741464614868,-1.1295579671859741,0.6949106454849255,10.043139457702637
1785985352.3090305,-0.3813892900943756,0.20007240772247334,1.6847203969955444,-1.1130982637405396,0.8137612938880933,9.966777801513672
1785985352.3538198,-0.4604795277118683,0.14405159652233143,1.4967694282531738,0.9733864068984985,0.20488092303276184,10.07591438293457
1785985352.3702528,-0.483477920293808,0.12341249734163302,1.4249768257141113,-1.4025218486785889,1.1800549030303966,9.097965240478516
1785985352.430136,-0.5970799326896667,0.12376297265291229,1.2078156471252441,-0.45549091696739197,1.148057579994203,10.180869102478027
1785985352.4516218,-0.6199257373809814,0.0914951935410501,1.1359232664108276,-0.6062464118003845,0.6930404305458081,9.878676414489746
1785985352.4687662,-0.6373680830001831,0.07210827618837369,1.0657237768173218,-0.6062464118003845,0.6930404305458081,9.878676414489746
1785985352.4901397,-0.610640287399292,0.05938280373811734,0.9969916939735413,-0.8326617479324341,1.1142692565917982,10.3729248046875
1785985352.510313,-0.6012464761734009,0.060096219182014576,0.9243946671485901,-0.3274783194065094,0.7261222004890454,10.005520820617676
1785985352.5304053,-0.5877352952957153,0.04204221069812785,0.8719467520713806,2.1406562328338623,0.4356912672519697,10.799586296081543
1785985352.5541794,-0.5558319687843323,0.024217523634433847,0.8274075984954834,-0.8594781756401062,0.7953929305076611,9.79064655303955
1785985352.5692804,-0.5235165953636169,0.04898552224040041,0.7759434580802917,-1.0196095705032349,0.9147242903709424,9.964012145996094
1785985352.588612,-0.5212044715881348,0.04683059826493272,0.7273159027099609,-1.329561710357666,0.8298437595367445,10.457035064697266
1785985352.6097596,-0.46665048599243164,0.047797694802284324,0.6862387657165527,1.4060527086257935,0.43600904941558966,10.320579528808594
1785985352.62991,-0.42406028509140015,0.061274021863937454,0.6295137405395508,1.6664856672286987,-0.09077683836221564,10.627819061279297
1785985352.65254,-0.4080546498298645,0.0722582936286927,0.5976949334144592,-1.8109060525894165,1.1805931329727184,9.428295135498047
1785985352.6700997,-0.3932172358036041,0.09371160715818412,0.5605781674385071,1.6186274290084839,0.0045440499670816835,10.850170135498047
1785985352.6880708,-0.3663746416568756,0.11253777891397483,0.5192500352859497,-0.4499683082103729,0.9720847606658949,10.655892372131348
1785985352.7102056,-0.3195924162864685,0.1238978579640389,0.48775598406791687,-0.9860334992408752,1.0775651931762706,9.493824005126953
1785985352.7290986,-0.3103596270084381,0.09893446415662771,0.460338294506073,2.0763099193573,-0.4144214987754808,11.408275604248047
1785985352.7513776,-0.2790178954601288,0.11118806153535848,0.43711981177330017,-1.144295334815979,1.1644313335418712,9.634499549865723
1785985352.7698045,-0.28089725971221924,0.06114204972982413,0.5144556164741516,-1.1794112920761108,1.015225648880006,9.396896362304688
1785985352.7898402,-0.32468244433403015,0.07305384427309045,0.6370469927787781,-1.1794112920761108,1.015225648880006,9.396896362304688
1785985352.8283217,-0.31824249029159546,0.028455687686801054,0.7877172231674194,-0.9417126178741455,0.2729677557945265,10.7330322265625
1785985352.8547676,-0.3245495557785034,0.031329240649938694,0.8964974880218506,1.4978346824645996,0.503291189670564,10.140629768371582
1785985352.8885427,-0.3887555003166199,-0.042534910142421584,1.1191335916519165,-2.04081392288208,1.692277550697328,10.218071937561035
1785985352.9101703,-0.5412118434906006,-0.06276377290487274,1.2211886644363403,-1.4991037845611572,1.0655640363693248,9.861268997192383
1785985352.9291315,-0.6429970264434814,-0.10092478990554793,1.3510334491729736,-2.612470865249634,0.7404579520225537,10.044939041137695
1785985352.953468,-0.726546049118042,-0.15207600593566878,1.4432679414749146,-2.6496222019195557,0.674426317214967,10.316240310668945
1785985352.9704711,-0.7871925234794617,-0.186338886618614,1.495057225227356,-0.3042392432689667,0.8557406663894667,10.58195972442627
1785985352.989899,-0.8000303506851196,-0.2263636440038679,1.5662180185317993,-0.6376040577888489,0.9545668959617627,10.071490287780762
1785985353.00961,-0.745232880115509,-0.3183375298976896,1.665877342224121,-0.7736471891403198,1.4009672403335585,9.984208106994629
1785985353.0303178,-0.6908379197120667,-0.3846156597137449,1.736472249031067,-0.8481181263923645,1.1785368919372572,10.081435203552246
1785985353.0521424,-0.6512274146080017,-0.38057169318199136,1.8034566640853882,-1.60994291305542,1.7561898231506359,9.914308547973633
1785985353.0689204,-0.6113361716270447,-0.4016410410404203,1.8996285200119019,2.4950058460235596,0.35019451379776123,10.067880630493164
1785985353.0903974,-0.5950353145599365,-0.34712857007980324,1.9677605628967285,-0.3850577473640442,1.1042780876159681,10.105513572692871
1785985353.1102705,-0.5882618427276611,-0.3233150243759153,2.0132904052734375,-1.8546977043151855,1.0549812316894542,9.768851280212402
1785985353.1282616,-0.5976423025131226,-0.2818615734577176,2.053062915802002,0.2659653425216675,0.707617521286012,9.55402660369873
1785985353.153831,-0.5645624995231628,-0.23246020078659033,2.1466305255889893,-1.476705551147461,0.8743452429771436,10.290495872497559
1785985353.1895025,-0.5361297130584717,-0.16811247169971438,2.2079355716705322,-2.934602975845337,1.2641929388046276,9.657510757446289
1785985353.2102804,-0.5636667609214783,-0.0875925198197362,2.2421069145202637,-1.7699490785598755,1.6602212190628063,9.755973815917969
1785985353.2701254,-0.5129189491271973,0.007798697333783186,2.2464759349823,-0.3583980202674866,1.0813437700271618,9.859479904174805
1785985353.2905595,-0.41724535822868347,0.11473957449197796,2.154564619064331,-0.34233102202415466,-0.25619125366210804,10.658119201660156
1785985353.3110876,-0.33959537744522095,0.1869401782751086,2.0592360496520996,-0.6610587239265442,1.2153452634811412,9.672712326049805
1785985353.3292942,-0.3119518458843231,0.21966791152954127,1.9816937446594238,-0.3532630205154419,1.1660215854644786,9.669581413269043
1785985353.351649,-0.3156796395778656,0.24178689718246482,1.8804967403411865,0.08809608221054077,0.6432059407234205,10.442890167236328
1785985353.3688154,-0.33630767464637756,0.2590954899787905,1.7781007289886475,0.08809608221054077,0.6432059407234205,10.442890167236328
1785985353.3902798,-0.3961738049983978,0.28540948033332847,1.6793782711029053,0.2950557768344879,0.94853574037552,10.228336334228516
1785985353.4111435,-0.45705804228782654,0.31137499213218706,1.5791932344436646,0.1972658485174179,0.8548523783683789,9.800785064697266
1785985353.4302278,-0.48486965894699097,0.29239889979362504,1.4927059412002563,0.3879033327102661,0.2665743231773389,10.61562442779541
1785985353.4526699,-0.48529133200645447,0.2507187128067018,1.4159629344940186,-0.7265023589134216,0.5113989114761365,9.656560897827148
1785985353.470489,-0.4960978627204895,0.20041041076183336,1.3414125442504883,0.6517534852027893,0.3942211866378797,10.28072452545166
1785985353.4900723,-0.5147616267204285,0.1405251026153566,1.2762062549591064,0.5743133425712585,0.6626730561256421,10.219714164733887
1785985353.5086758,-0.5143870115280151,0.10752039402723328,1.2008075714111328,0.40543997287750244,0.7393239140510571,10.212394714355469
1785985353.5301597,-0.4883441925048828,0.06060718372464194,1.1349447965621948,-0.7307288646697998,0.4684866368770612,10.312177658081055
1785985353.5516624,-0.4570305645465851,0.039937667548656595,1.0645577907562256,-0.8844814300537109,1.4646242856979383,9.991654396057129
1785985353.5700228,-0.47259804606437683,-0.02454176545143115,1.0057443380355835,-0.8844814300537109,1.4646242856979383,9.991654396057129
1785985353.6101708,-0.4956448972225189,-0.04603135958313931,0.9015693068504333,-1.0753229856491089,0.8097304701805127,10.065836906433105
1785985353.6700954,-0.3997558057308197,0.11858731508255015,0.7423194050788879,-0.01382061094045639,0.6042395234107983,10.23558521270752
1785985353.7100878,-0.42055824398994446,0.11083397269248971,0.638738751411438,0.5715285539627075,0.1000435650348676,10.339215278625488
1785985353.7291186,-0.4705384075641632,0.060226295143365936,0.6049139499664307,-2.2474703788757324,1.2253324985504161,9.957281112670898
1785985353.7538636,-0.5160907506942749,0.05867119878530509,0.5526655316352844,0.4608628451824188,0.8287399411201489,10.402024269104004
1785985353.769777,-0.5213868021965027,0.06190495938062674,0.5199671983718872,0.4608628451824188,0.8287399411201489,10.402024269104004
1785985353.78919,-0.53854900598526,0.05207570642232901,0.4941732585430145,0.2819737195968628,0.7939274311065686,10.29073429107666
1785985353.813166,-0.5417730212211609,0.11333087086677557,0.45507916808128357,-2.8928143978118896,1.1861091852188121,9.463905334472656
1785985353.8521338,-0.5375945568084717,0.0751513615250588,0.4558064043521881,-0.06092239171266556,0.735133528709413,10.585041999816895
1785985353.8687623,-0.4898994565010071,0.045726127922535005,0.5078778862953186,-0.48530128598213196,0.9754289388656628,10.357834815979004
1785985353.891335,-0.42335784435272217,0.03373283892869957,0.6094160079956055,-0.7165876626968384,1.3453719615936293,10.045628547668457
1785985353.9116845,-0.3806561827659607,-0.010878100991249,0.6902223229408264,1.1309962272644043,0.5177618861198439,10.46983814239502
1785985353.9284863,-0.35008683800697327,-0.02381711266934862,0.7939453721046448,-2.183171510696411,2.0123534202575697,10.264486312866211
1785985353.9543116,-0.33807024359703064,-0.039869774132966884,0.9182491898536682,-2.183171510696411,2.0123534202575697,10.264486312866211
1785985353.9700828,-0.3584553301334381,-0.059600517153739804,1.0156338214874268,-0.9678916931152344,0.767654895782472,10.478595733642578
1785985353.9889278,-0.412306010723114,-0.07493902742862688,1.105220913887024,0.21290910243988037,0.8158649802207959,10.164615631103516
1785985354.0094242,-0.4637722671031952,-0.1015856266021727,1.2168875932693481,-0.6627101898193359,0.6966972351074231,10.347051620483398
1785985354.0292244,-0.5363254547119141,-0.165597692131996,1.3280889987945557,0.11018490791320801,0.9547821283340466,9.736154556274414
1785985354.0552607,-0.6085878610610962,-0.24741609394550307,1.433705449104309,-0.6897481679916382,1.318339228630067,9.962976455688477
1785985354.070179,-0.6389118432998657,-0.2914040088653563,1.545432209968567,-1.171246886253357,1.0316715240478527,9.773229598999023
1785985354.088057,-0.6449127197265625,-0.31649082899093606,1.6126770973205566,-0.9093121290206909,0.6516076326370251,10.33366870880127
1785985354.1104066,-0.6672185659408569,-0.30681267380714394,1.675071120262146,-0.2242864966392517,1.423523545265199,10.31235122680664
1785985354.1300817,-0.6669518351554871,-0.30918869376182534,1.7269474267959595,0.26163002848625183,1.1905841827392591,10.77498722076416
1785985354.1515768,-0.6047252416610718,-0.33288270235061623,1.822577953338623,-2.6200878620147705,1.5865533351898207,10.060125350952148
1785985354.170057,-0.5412850379943848,-0.3571658432483671,1.8857146501541138,0.2589757740497589,0.7336608767509472,9.207368850708008
1785985354.1883264,-0.5468775033950806,-0.3417784571647642,1.9245014190673828,0.45315954089164734,0.6765224337577831,9.170801162719727
1785985354.2112656,-0.5241801738739014,-0.33043986558914157,2.043297052383423,-3.1081762313842773,1.647877335548402,9.866360664367676
1785985354.2292693,-0.4979582726955414,-0.25971493124961825,2.0862646102905273,-2.630502462387085,1.7101808786392225,10.181750297546387
1785985354.2539012,-0.5212138295173645,-0.18227995932102178,2.1158089637756348,1.6987789869308472,0.848986864089967,9.68613338470459
1785985354.2701185,-0.5151156783103943,-0.1597048342227933,2.1681432723999023,1.6620031595230103,0.7377937436103833,9.69492244720459
1785985354.288136,-0.4772634506225586,-0.11123868077993365,2.2220985889434814,0.923885703086853,0.7953449487686169,10.061236381530762
1785985354.31014,-0.4465489685535431,-0.07121879607439013,2.279262065887451,-2.1129348278045654,0.8382184505462659,9.9766263961792
1785985354.3300314,-0.4495399296283722,-0.043183486908673956,2.3145358562469482,-2.4643146991729736,0.7132819890975964,10.138188362121582
1785985354.3513384,-0.43367668986320496,0.0341186076402667,2.3388428688049316,-2.4643146991729736,0.7132819890975964,10.138188362121582
1785985354.3700058,-0.3790982961654663,0.10143703222274808,2.2649929523468018,-0.4594978392124176,0.801333010196687,9.850137710571289
1785985354.3897672,-0.35796746611595154,0.1709940731525424,2.194797992706299,-3.9198319911956787,0.709426283836366,9.847336769104004
1785985354.410488,-0.34402400255203247,0.2526925504207614,2.0971202850341797,1.7050457000732422,1.2887482643127453,9.357797622680664
1785985354.4302547,-0.29168251156806946,0.2767654657363894,1.994408369064331,-0.4847513735294342,0.6333805918693555,10.218948364257812
1785985354.451591,-0.2724224030971527,0.29015302658081077,1.9086599349975586,-0.11014500260353088,0.7672817111015332,10.287108421325684
1785985354.46838,-0.31019654870033264,0.3156899213790896,1.8235774040222168,0.1379328966140747,0.5131370425224316,9.941265106201172
1785985354.488436,-0.3212287724018097,0.35261362791061424,1.726784110069275,0.3401901423931122,0.4509044587612165,10.329668045043945
1785985354.5102828,-0.36645177006721497,0.3328466117382052,1.6349928379058838,-0.09266100823879242,0.4237439334392561,10.693572998046875
1785985354.5291567,-0.4421554505825043,0.3260693550109865,1.5595320463180542,0.5975939631462097,0.2640577256679548,10.660841941833496
1785985354.5512166,-0.48396629095077515,0.29865497350692766,1.4694489240646362,0.7735485434532166,0.2874372601509107,10.278009414672852
1785985354.5690727,-0.5155160427093506,0.2603579163551332,1.3924578428268433,-0.24569198489189148,0.8202731609344495,9.717668533325195
1785985354.590087,-0.5382950305938721,0.2611361443996431,1.2989729642868042,-0.71485835313797,0.8502889275550854,10.119568824768066
1785985354.6106608,-0.5761599540710449,0.2411674261093141,1.2193812131881714,-0.7742303609848022,0.8047413229942334,9.976523399353027
1785985354.6291473,-0.5770203471183777,0.23813353478908553,1.1392611265182495,-0.8107987642288208,1.023125529289247,10.307841300964355
1785985354.65427,-0.5913892388343811,0.21327257156372084,1.0551044940948486,0.17390677332878113,0.38498261570930614,11.007376670837402
1785985354.669777,-0.584149181842804,0.1728702187538148,1.0005179643630981,-1.531362533569336,0.9971097111701978,10.369329452514648
1785985354.6888378,-0.5734955668449402,0.16089972853660595,0.9388309717178345,-1.189855933189392,1.2073100805282606,10.017969131469727
1785985354.73018,-0.525671660900116,0.12789061665534984,0.8086879253387451,-1.1697384119033813,1.1701630353927623,9.473875999450684
1785985354.769037,-0.49253395199775696,0.07843805849552163,0.7018718719482422,-0.630664050579071,0.9989958405494703,10.604297637939453
1785985354.7882624,-0.4622260630130768,0.05568598210811623,0.6627457141876221,-0.5314249992370605,1.0309772491455091,10.153039932250977
1785985354.8107357,-0.4452027678489685,0.046904433518648224,0.6170840859413147,-0.6573690176010132,0.7399260401725781,10.383087158203125
1785985354.8295166,-0.43211355805397034,0.0152506614103914,0.5731039643287659,-0.7826971411705017,0.874916195869447,10.322405815124512
1785985354.852388,-0.42564505338668823,-0.014630843885242873,0.5327983498573303,-2.812991142272949,1.3297953605651867,9.929753303527832
1785985354.8897345,-0.4056931138038635,-0.046063136309385244,0.473748117685318,-2.812991142272949,1.3297953605651867,9.929753303527832
1785985354.9099672,-0.38986697793006897,-0.04759851843118662,0.439646452665329,-1.0606837272644043,0.8999589085578931,10.220874786376953
1785985354.930303,-0.37404200434684753,-0.04517100378870959,0.4137509763240814,-0.07982604205608368,0.6429097652435315,10.291433334350586
1785985354.9516053,-0.3676186501979828,-0.05387374386191363,0.39972206950187683,-0.15253610908985138,1.0942214727401747,10.89500617980957
1785985354.9690423,-0.35200586915016174,-0.0650371760129928,0.4723794758319855,-0.5255755186080933,0.628900229930879,10.739433288574219
1785985354.9896944,-0.4030503034591675,-0.05103220790624611,0.6125337481498718,0.1281728297472,1.999485254287721,10.190338134765625
