timestamp,angular_velocity.x,angular_velocity.y,angular_velocity.z,linear_acceleration.x,linear_acceleration.y,linear_acceleration.z
0.133453369140625,0.0022386591881513,-0.000178919872269,-0.0002718260511755,-0.4617173373699188,-0.1197722107172,9.788250923156738
0.1374506950378418,-2.1676532924175265e-07,-0.0029473036993294,0.0002470924519002,-0.4621700942516327,-0.1097079738974559,9.779248237609863
0.1534867286682129,0.0001080747460946,-0.0001811571419239,0.0004680161364376,-0.462178111076355,-0.1182838082313525,9.772592544555664
0.15749669075012207,0.0002107868203893,0.0002562212757766,-0.0019744909368455,-0.471780389547348,-0.1236451119184482,9.79725456237793
0.16161751747131348,-0.0008361033978872,-0.0018698119092732,-0.0026312316767871,-0.4837320446968078,-0.1130070537328708,9.77963161468506
0.16945171356201172,0.0003204680979251,-0.0003865382168442,-0.0014432691968977,-0.4722438752651214,-0.1145878955721843,9.802964210510254
0.1734607219696045,-0.0014889969024807,0.0001385940704494,0.0003626099787652,-0.4703562557697296,-0.117494501173495,9.81244659423828
0.18150067329406738,-0.0027631584089249,-0.0002904969733208,0.0014248033985495,-0.4669057726860046,-0.1182359382510173,9.764449119567873
0.18546557426452637,-0.0018122906330972,0.0007755274418741,0.0005795988254249,-0.4544956684112549,-0.1163911595940578,9.77448272705078
0.18949055671691895,0.0004329839721322,-7.080612704157837e-05,-0.0006959224119782,-0.4550677537918091,-0.120334446430205,9.80537223815918
0.19353270530700684,9.480072185397148e-05,-0.0004997844807803,0.0003738054074347,-0.4559526443481445,-0.1204142123460757,9.816242218017578
0.19745349884033203,-0.0016026670346036,-0.000295574311167,0.0020671999081969,-0.4579202830791473,-0.1146091818809497,9.809618949890137
0.2015666961669922,0.0008460201788693,-0.0009221602231264,-0.0005905646830797,-0.4702856540679931,-0.0974285453557956,9.807300567626951
0.20545172691345215,-0.002022969070822,-0.0015641185455024,-0.0001741582527756,-0.468894898891449,-0.1136399209499347,9.801521301269531
0.20945143699645996,-0.0014893751358613,-0.0016647959128022,-0.0012378743849694,-0.4531066715717315,-0.1131502240896213,9.800602912902832
0.21347665786743164,0.0014885816490277,0.0004506667610257,0.0011125118471682,-0.4664694368839264,-0.1031026989221561,9.796363830566406
0.21746563911437988,0.0010628030868247,-0.0011492248158901,0.0014267689548432,-0.4779567420482635,-0.1016201972961413,9.783984184265137
0.2214515209197998,0.0032949983142316,-0.0008195852860808,-5.171075463294973e-05,-0.4703295528888702,-0.0991988703608501,9.78354835510254
0.2254505157470703,0.0014988363254815,-0.0019892044365406,-0.0018780105747282,-0.4655280113220215,-0.1049164608120906,9.785429000854492
0.23346161842346191,-0.0002116283867508,-0.0015575210563838,-0.0009161005727946,-0.4602712094783783,-0.1065249592065799,9.813450813293455
0.23745369911193848,-0.0002122977748513,-0.0017780950292944,0.0004653329961001,-0.4746441841125488,-0.1117696166038501,9.813876152038574
0.24151849746704102,-0.0010666432790458,2.513616345822831e-05,0.0016442285850644,-0.4579015672206878,-0.1251572221517551,9.811466217041016
0.24547147750854492,-0.0006379893748089,-0.000930436886847,0.0006819912232458,-0.4675021767616272,-0.1309525668621051,9.823326110839844
0.24945068359375,0.0011689438251778,-0.0025157725904136,-0.0017682649195194,-0.4646010100841522,-0.1317884176969516,9.79251766204834
0.25745248794555664,-0.0020236135460436,0.0013101734220981,-0.0004819501191377,-0.460709810256958,-0.1073003634810435,9.774494171142578
0.2614564895629883,0.0004259942797943,-7.308879867196088e-05,-0.0004824660718441,-0.4702931344509125,-0.1126047819852817,9.784894943237305
0.2655346393585205,0.0020216242410242,0.0002456274814903,0.0004764287732541,-0.4631520807743072,-0.1126648187637317,9.798181533813477
0.2734506130218506,0.0018102580215781,0.001949424506165,-0.0004695430397987,-0.4799131751060486,-0.1309736073017108,9.828990936279297
0.27745556831359863,0.0012807260500267,0.0003535936120897,-5.460903048515324e-05,-0.478952020406723,-0.1169721782207477,9.790614128112791
0.28159260749816895,0.0006402840372174,-0.0002797902561724,-0.001545918174088,-0.4664094746112823,-0.1067021787166583,9.749770164489746
0.28546142578125,0.0008507656166329,0.0002404735423624,0.0006924634799361,-0.4549302160739898,-0.0947857424616801,9.757455825805664
0.2902545928955078,-2.93968478217721e-05,-0.0004297434352338,0.0001291581429541,-0.4607715010643005,-0.1035368442535388,9.786985397338867
0.2982485294342041,-0.0009584065992385,0.0006660241633653,0.0006896420381963,-0.49041748046875,-0.1212786659598338,9.80048370361328
0.30225157737731934,0.0001068115234375,0.0014100008411332,0.0002692290581762,-0.4794102311134338,-0.126039847731589,9.799531936645508
0.30625152587890625,-0.0014838587958365,-0.0005137636326253,4.564924165606505e-05,-0.4511603713035583,-0.1244749873876559,9.790560722351074
0.31026363372802734,0.0002207561628893,-0.0002869446761906,-0.0002735070884227,-0.4617242813110351,-0.1322334706783282,9.789080619812012
0.31431150436401367,-0.0007517976919189,-0.0004920023493468,-0.0020813015289604,-0.4774497747421264,-0.1226134076714503,9.781031608581545
0.3182666301727295,-0.0011674669804051,-0.000815738691017,-0.0009125806391239,-0.4788790047168731,-0.1249412670731532,9.762495040893556
0.3262605667114258,-0.0003179510822519,-0.002521775662899,-0.000279797706753,-0.4482234716415405,-0.1057595387101161,9.751704216003418
0.3302435874938965,-0.0007437295862473,-0.0022024232894182,-0.0001730318181216,-0.4588083028793335,-0.1073508337140071,9.785881042480469
0.33425331115722656,0.0007491570431739,0.0004629844333976,-0.0020817436743527,-0.4526878893375397,-0.1242601722478854,9.81757354736328
0.3382582664489746,0.001704730791971,-0.0007073504384607,-0.0010136095806956,-0.459792286157608,-0.121319770812987,9.808146476745604
0.3422422409057617,-0.0015940447337925,-0.0033677807077765,-0.0010305880568921,-0.4631399810314178,-0.1265466213226306,9.800030708312988
0.34630823135375977,-0.0024501541629433,-0.0016655465587973,0.000363805796951,-0.4516213536262512,-0.1197937577962863,9.778159141540527
0.350250244140625,0.0001097199274227,0.001624604454264,0.0014399262145161,-0.4602486193180084,-0.1211580261588084,9.776327133178713
0.3542652130126953,0.0011741361813619,0.00024891551584,-0.0009036571718752,-0.4587954580783844,-0.1221426352858531,9.77821159362793
0.3583683967590332,-0.0010597615037113,-0.0003962235059589,0.0004760301671922,-0.4664124250411987,-0.1287244856357562,9.756315231323242
0.36237239837646484,-0.0024456265382468,-7.188180461525925e-05,-0.0006978083401918,-0.468288391828537,-0.1187685728073108,9.766786575317385
0.366260290145874,0.0003217250341549,-0.0007168648298829,0.0003671431913971,-0.4736436903476715,-0.1159973368048656,9.792946815490724
0.3702993392944336,0.0012759292731061,-0.0002908022142946,0.0007979972288012,-0.475128173828125,-0.1161227002739894,9.821454048156738
0.3743164539337158,-0.0002153242239728,0.0004469959530979,0.0009014294482767,-0.4655658006668091,-0.1122293248772609,9.818025588989258
0.3782532215118408,-0.0001027798280119,-0.0002866284921765,-0.0005895397625863,-0.4789772629737854,-0.1079790145158755,9.81110668182373
0.38225436210632324,0.0006432856898754,-0.0016649160534143,-0.0012335223145782,-0.4731526374816894,-0.1102377027273166,9.793441772460938
0.38625502586364746,0.0009581759804859,-0.0009311027824878,0.0004758350551128,-0.4688585698604584,-0.1240458637475955,9.777256965637209
0.390256404876709,0.001494621974416,-0.0007104619871824,-0.0006960649043321,-0.4558897316455841,-0.1345515847206103,9.766698837280272
0.3942532539367676,0.0018086690688505,-0.0007176585495471,0.0010095951147377,-0.4635809659957886,-0.1236136928200709,9.785795211791992
0.3982503414154053,0.0015983574558049,-0.0018829347100108,-0.000586490612477,-0.4798201024532318,-0.1256375759839999,9.807482719421388
0.40224337577819824,0.0002138541312888,-0.000509827164933,0.0012285900302231,-0.475524753332138,-0.1247036308050143,9.807046890258787
0.40625643730163574,0.000213322462514,-0.0012519704177975,0.0005825827829539,-0.4745501279830932,-0.1098146066069591,9.794737815856934
0.4103093147277832,0.000531016732566,-0.000830155564472,0.0019704280421137,-0.4645086824893951,-0.1117772683501231,9.807119369506836
0.4142632484436035,-0.0003125750226899,-0.0003919417504221,-0.0015454511158168,-0.4769992232322693,-0.1098776459693896,9.815166473388672
0.4182584285736084,0.0007462399080395,0.0021501800511032,0.0009237769991159,-0.4727084934711456,-0.1155682131648051,9.798967361450195
0.4222424030303955,0.0002170600928366,0.000882766675204,0.000166390556842,-0.464451789855957,-0.1173891797661769,9.782831192016602
0.4262516498565674,-0.000745071680285,-0.0009377407841384,0.0015457328408956,-0.4668967127799988,-0.1198440119624126,9.794246673583984
0.4343693256378174,0.0004322219174355,0.0018286171834915,0.0025073210708796,-0.4544682800769806,-0.1093079447746264,9.798104286193848
0.4422423839569092,0.0013885473599657,0.00035389396362,-0.0014280588366091,-0.4535370767116546,-0.1080127656459796,9.823766708374023
0.44626641273498535,0.0005506426095962,0.000352072995156,-0.0021795397624373,-0.4673902690410614,-0.1184267550706851,9.807061195373535
0.45025134086608887,0.0008558109402656,-0.0004979793448001,-0.0012191394343972,-0.4616796970367431,-0.1190459579229342,9.831316947937012
0.4583933353424072,-0.0020184237509965,-0.0017805641982704,-0.0001658275723457,-0.4501558244228363,-0.1131691485643374,9.80095672607422
0.46224236488342285,-0.0021284404210746,2.520112320780761e-05,0.0005857124924659,-0.4520829617977142,-0.1132325977087008,9.811861038208008
0.4663834571838379,-0.0003149177646264,0.0013114573666825,-0.0009011905640363,-0.4598149061203003,-0.0935903936624514,9.81613826751709
0.47426724433898926,-0.0002154980320483,-0.0010364037007093,0.0009111762046813,-0.4931558072566986,-0.0986974239349353,9.793733596801758
0.4782674312591553,-0.0015892692608758,0.0018413678044453,-0.001210224814713,-0.4869603812694549,-0.0939665138721454,9.781521797180176
0.4824182987213135,0.0006434710230678,-0.0009272680617868,-0.0005820360966026,-0.4716261029243469,-0.1121115237474429,9.777177810668944
0.4902644157409668,0.0004296562401577,0.0019485611701384,-0.0012086261995136,-0.451116532087326,-0.1327891200780856,9.800870895385742
0.4982633590698242,0.0003265653504058,3.973022103309601e-05,-0.0024942618329077,-0.4439055919647217,-0.1025819331407535,9.78675937652588
0.5022454261779785,0.0007496130419895,0.0008837333880364,-0.0010024271905422,-0.4529983699321747,-0.1007066071033465,9.796245574951172
0.5062522888183594,0.0005404668627306,-0.0004950854927301,-0.0020681917667388,-0.46786829829216,-0.108940854668616,9.814254760742188
0.5102436542510986,-0.0003146248636767,-0.000285264570266,-0.0008987328037619,-0.4625585377216339,-0.1097629591822612,9.7924222946167
0.5142543315887451,6.193295121192932e-06,-0.0016692392528057,-0.0011210720986127,-0.476414293050766,-0.1264930069446551,9.78091526031494
0.518256425857544,-0.0006387039320543,-0.0016788633074611,0.0007970123551785,-0.4740356802940368,-0.1106752604246127,9.778603553771973
0.5222430229187012,0.0019163811812177,-0.000184362521395,-0.0004690936766564,-0.4572992324829101,-0.1182979643344867,9.770992279052734
0.5302424430847168,0.0005346923135221,-6.646430119872082e-05,0.0009031016379594,-0.4611470997333526,-0.1133020520210254,9.82785415649414
0.5382764339447021,0.0023435258772224,0.000239759683609,-4.320638254284861e-05,-0.4664458930492401,-0.1270866543054568,9.81084156036377
0.542243242263794,-0.0011682347394526,0.0008846682030707,-0.000789301469922,-0.4740943312644958,-0.1132697761058795,9.823715209960938
0.5462653636932373,-0.0009522865293547,-0.0014524196740239,-0.0018643089570105,-0.4620878100395202,-0.1097738817334163,9.788609504699709
0.5502424240112305,0.0004312619566917,-0.0001864158548414,0.0002688015811145,-0.4639402329921722,-0.1148989647626864,9.757747650146484
0.5546143054962158,-0.0001030811108648,0.00130408431869,0.0001698858104646,-0.4758976697921753,-0.1066853925585734,9.742022514343262
0.5582482814788818,0.0009621992940083,0.0015212497673928,-0.0013130810111761,-0.4735236763954162,-0.1230339258909213,9.754324913024902
0.566265344619751,-0.0001089009456336,-0.0015765745192766,0.0002670264802873,-0.4659328162670135,-0.1322665214538562,9.790428161621094
0.5702433586120605,-0.0005322243086993,0.0007683844305574,0.0015532602556049,-0.4750359356403351,-0.1184911355376231,9.81467056274414
0.5742642879486084,0.0009635558817535,-0.0009262429084628,-4.735635593533504e-05,-0.4808048903942108,-0.1127319931983935,9.810420036315918
0.5782523155212402,0.001495714765042,-0.0012398085091263,-0.0017497367225587,-0.4721542000770569,-0.1236907690763461,9.79898738861084
0.5822513103485107,-0.0013789200456812,0.0007868802640587,-0.0023891299497336,-0.4639996588230133,-0.1107649952173221,9.7933349609375
0.5862610340118408,4.617846570909023e-06,0.0008844868279993,-0.001000331249088,-0.4663740396499634,-0.1034945547580707,9.775811195373535
0.5902550220489502,-0.0003136887680739,0.0004626798909157,-0.0013218191452324,-0.4477003514766693,-0.1192219480872142,9.7586669921875
0.5942542552947998,-0.0001046145334839,0.0001344108022749,0.0003767693415284,-0.4462646842002868,-0.1106938943266856,9.777178764343262
0.598278284072876,0.001066351425834,0.0016341927694156,-0.0008958312682807,-0.4587479531764984,-0.1036120206117618,9.81143856048584
0.6022462844848633,0.000959919183515,0.0007649816107004,0.0017773685976862,-0.4659812450408935,-0.109484940767287,9.830456733703612
0.6062512397766113,0.0001109316945075,-0.0020974224898964,-5.68507239222524e-05,-0.4654533863067627,-0.1227678731083857,9.8123140335083
0.6102433204650879,-0.0013764961622655,-0.0010301002766937,-0.001115518156439,-0.4788546860218048,-0.1390254795551288,9.806036949157717
0.618267297744751,-0.0030833319760859,-0.0011434231419116,0.0005828593857586,-0.4664108455181122,-0.1284720152616489,9.799915313720703
0.622260332107544,-0.0035089012235403,-0.0008206954225897,-0.0003723888657987,-0.4668557047843933,-0.1192863956093776,9.778116226196287
0.6262853145599365,-0.0009394827648065,-0.0020798733457922,-0.0020788302645087,-0.4715733528137207,-0.1364108622074115,9.743725776672363
0.6342530250549316,0.0003222136292606,-0.0008195266127586,-0.000579684972763,-0.4563386440277099,-0.1183624044060695,9.78626537322998
0.642242431640625,-0.0014915103092789,-0.0025211358442902,-0.0009175837039947,-0.462119311094284,-0.1070830300450313,9.826545715332031
0.6462602615356445,-0.00031653419137,-0.0023079009260982,-0.0010143895633518,-0.472690999507904,-0.1100144684314715,9.844202995300291
0.6502430438995361,-0.0022260833065956,-0.0027289639692753,-0.0015524891205132,-0.4635733366012573,-0.1036357060074794,9.80385398864746
0.6544322967529297,-0.0014872270403429,-0.001011992804706,-0.0013317540287971,-0.4731336534023285,-0.1025135964155185,9.775677680969238
0.6582770347595215,-0.0027620457112789,0.0006644644308835,-0.0030395472422242,-0.4677415490150451,-0.09192907065153,9.764471054077148
0.6622424125671387,0.0007544757099822,0.0008929106406867,-0.0016363472677767,-0.4706665277481079,-0.1015696227550494,9.769633293151855
0.6663904190063477,0.0020276717841625,0.0004596549551934,-0.0009981803596019,-0.4635047614574432,-0.1130858883261668,9.780991554260254
0.6702554225921631,0.001710154232569,0.001526667852886,-0.0004672361537814,-0.470743179321289,-0.1065183430910098,9.809459686279297
0.6742653846740723,0.0017095630755648,3.0174618586897857e-05,6.368057802319527e-05,-0.471215009689331,-0.1199667677283275,9.817994117736816
0.6782643795013428,0.0018153875134885,-0.0001796183641999,-0.0001502158120274,-0.465463638305664,-0.1299782842397678,9.813228607177734
0.6822874546051025,0.0001093987375497,-0.0010438843164592,-0.0001583923585712,-0.449125200510025,-0.1361774653196323,9.814604759216309
0.6862654685974121,-0.0021222881041467,0.0015406945021823,-0.0019638747908174,-0.4531054496765136,-0.1304401010274875,9.810846328735352
0.690371036529541,-0.0002056093653663,0.0007732168305665,-0.0004663858562707,-0.4544218182563782,-0.1207437217235553,9.785711288452148
0.6942543983459473,-0.0019131526350975,-0.0004937804769724,-0.0017553032375872,-0.4591920077800751,-0.1173603162169444,9.7733793258667
0.6982822418212891,-0.001486821915023,0.0003522594925016,-0.0015314891934394,-0.4711791276931762,-0.1112351790070521,9.794776916503906
0.7022576332092285,0.0004399110330268,0.0006694311741739,-0.0014365231618285,-0.4585539698600769,-0.1140863001346576,9.781903266906738
0.7102892398834229,-0.0014915642095729,-0.0004068077541887,0.000583273358643,-0.4707256257534027,-0.1164534315466868,9.791943550109863
0.7142553329467773,2.247979864478112e-05,-0.0007053283043205,0.001234876923263,-0.4571911692619324,-0.1257702261209476,9.808116912841797
0.7182643413543701,-0.0004229005426168,-0.0010408742818981,0.0014416128396987,-0.4467540085315704,-0.1384296566247928,9.77995491027832
0.7222442626953125,-0.0002096572425216,2.7632340788841373e-05,0.0010186121799051,-0.4491830468177795,-0.137565419077872,9.795639991760254
0.7302470207214355,0.0008546467870473,0.0008782693184912,0.0005950378254055,-0.461116075515747,-0.1015598028898227,9.773489952087402
0.7350664138793945,0.0012792936759069,-0.0001681942958384,0.0008632815442979,-0.4511510729789734,-0.1187211722135531,9.777502059936523
0.7430574893951416,-0.0013777911663055,0.0002456021029502,-0.0007903771474957,-0.4697336554527282,-0.1112147793173778,9.789080619812012
0.751056432723999,-0.0005274188006296,-0.0006064299959689,-4.472723230719559e-05,-0.4735830724239349,-0.1118332892656314,9.821377754211426
0.755164384841919,-0.0021087750792503,0.0002444547135382,-0.0007927198894321,-0.4774348735809326,-0.100395932793616,9.798812866210938
0.7590656280517578,0.0010688671609386,0.0018413906218484,-0.0004602805711328,-0.469295471906662,-0.1013050079345691,9.819045066833496
0.7631733417510986,0.0008559565758332,0.0005639949813485,-0.0004660249687731,-0.4639947116374969,-0.1140888780355441,9.790498733520508
0.7670543193817139,-0.0009517516009509,0.0015208352124318,-3.757514059543628e-05,-0.4519996643066406,-0.1283263862133014,9.766715049743652
0.7711856365203857,-0.0016938757617026,-0.0017741657793521,-0.00207205186598,-0.4586993753910064,-0.1248860135674464,9.754337310791016
0.7750644683837891,-0.0006320522516034,0.000247084069997,6.148451939225194e-05,-0.4673406779766083,-0.1116858199238765,9.785839080810549
0.7830653190612793,0.0023400140926241,0.0004593825433403,0.00028564222157,-0.4657929539680481,-0.1250178962945926,9.790033340454102
0.7910716533660889,0.0011855071643367,0.0002484580036252,-0.0016396511346101,-0.4544725120067596,-0.1161234378814685,9.81804656982422
0.7990663051605225,0.0008567568147554,-0.0013525269459933,-0.0007926244288682,-0.4386886060237884,-0.1242376789450633,9.816167831420898
0.8070583343505859,0.0011721670161932,-0.0002936290111392,0.0012325821444392,-0.4592086672782898,-0.122688867151736,9.78812026977539
0.8110573291778564,0.001394567079842,-0.0003958470188081,0.0004941686056554,-0.4644449055194855,-0.1222190484404552,9.77723503112793
0.815070390701294,0.0024442882277071,-0.0018756834324449,-0.0012127673253417,-0.4659202396869659,-0.0968920886516559,9.783854484558104
0.8190724849700928,0.0019264506408944,-0.0017710037063807,-0.0018601599149405,-0.4716352522373199,-0.0973676592111575,9.798226356506348
0.8230454921722412,7.459428161382675e-06,-0.000185432145372,0.000695826485753,-0.4654560685157776,-0.1192758157849299,9.779998779296877
0.827073335647583,-0.0001076717162504,0.0021502561867237,0.0018856660462915,-0.4654356241226196,-0.1207885071635234,9.791418075561523
0.8310456275939941,-0.0004237973480485,0.0003443907480686,0.000913193449378,-0.459231287240982,-0.1184730529785144,9.808557510375977
0.8390679359436035,0.0011715691071003,-0.0010332716628909,0.0001764353364706,-0.4710763096809387,-0.1102552264928805,9.78099250793457
0.8470799922943115,0.0003262143582105,0.0017334360163658,-0.0007749991491436,-0.4754018187522888,-0.1264946758747089,9.780359268188477
0.8510458469390869,0.001494177035056,0.0020429589785635,0.0008225878700613,-0.46009561419487,-0.1245208010077464,9.762826919555664
0.8551688194274902,0.00128001102712,0.0005572303198277,0.0008171256631612,-0.454330176115036,-0.1240584626793849,9.772323608398438
0.8590569496154785,0.0006444915197789,0.0004518320783972,-0.000140166375786,-0.4610402882099151,-0.1188203021883952,9.779001235961914
0.8630928993225098,0.0011765719391405,-0.0014561156276613,-0.0016416544094681,-0.480685144662857,-0.1237185224890697,9.799378395080566
0.8671689033508301,0.0003256442723795,0.0013110425788909,-0.001093101222068,-0.4783321022987366,-0.1247863098978984,9.825967788696287
0.8710598945617676,0.0009596220916137,0.0001282405573874,0.0002826298587024,-0.4562879502773285,-0.1232502236962306,9.803689002990724
0.8750648498535156,0.0018227886175736,0.0008847590070217,-0.00098926294595,-0.451981246471405,-0.1155498400330531,9.797066688537598
0.8790712356567383,-0.0021210813429206,0.0006688861176371,-0.0009965375065803,-0.4496288895606994,-0.1232711672782885,9.80561065673828
0.8830668926239014,-9.99419717118144e-05,0.0015197498723864,-0.0004578256048262,-0.4419547319412231,-0.1127341240644442,9.804699897766112
0.8870539665222168,-0.0008423707913607,0.0009965654462575,-0.0024830265901982,-0.4471776187419891,-0.1188673600554454,9.786622047424316
0.8950586318969727,-9.489222429692744e-05,0.0017328970134258,-0.0002467995509505,-0.4668245315551758,-0.1074038222432124,9.789005279541016
0.8990688323974609,0.0001096348278224,0.000241489848122,0.0009218081831932,-0.462976336479187,-0.1088487207889545,9.795646667480469
0.9030852317810059,0.0012835655361413,-0.0007259256672114,-0.0006724498234689,-0.4772726893424988,-0.1070336103439319,9.801968574523926
0.9110770225524902,0.0029844176024198,-0.0005076737143099,0.0008155643008649,-0.4701710641384125,-0.1040917336940753,9.798066139221191
0.9190559387207031,-0.0014889801386743,0.0009784824214875,0.0019887438975274,-0.4759152829647064,-0.1069836914539325,9.802327156066896
0.92706298828125,0.0022382531315088,0.0007661068812012,0.001564918551594,-0.453908622264862,-0.108404718339442,9.799978256225586
0.9350569248199463,0.0019255880033597,0.0007774815894663,-0.001413554418832,-0.4525078237056732,-0.1189823970198619,9.81611156463623
0.943058967590332,-0.0007371249957941,0.0034450967796146,-0.0011919564567506,-0.4754652678966522,-0.113312520086764,9.825093269348145
0.9510579109191895,-0.0008385406690649,-0.0015687975101172,-0.0009991778060793,-0.4601700603961944,-0.1180174052715289,9.810482025146484
0.9551892280578613,0.0001089525176212,-0.0001920494250953,-0.0003669490106403,-0.4515278339385986,-0.1269926279783237,9.794224739074709
0.9631848335266113,0.0005397596396505,0.0019456314621493,-0.0002390835434198,-0.4610782861709595,-0.131382882595061,9.80556869506836
0.9670679569244385,3.2008392736315727e-06,0.0010865596123039,0.0012444602325558,-0.4648972451686859,-0.122689180076121,9.786592483520508
0.9750769138336182,0.0021355191711336,-0.0017796740867197,-0.00068243406713,-0.4739984571933746,-0.1361146867275226,9.796042442321776
0.9830667972564697,0.0014970800839364,0.001098011387512,-0.0008815787732601,-0.4654142260551452,-0.1118140965700137,9.81468677520752
0.9910600185394287,0.0003236794145777,0.0009845430031418,0.0004968731664121,-0.4614925384521484,-0.1283078640699374,9.755692481994627
0.999068021774292,0.0004293579841032,0.0007761837914586,-0.000777821522206,-0.4562408924102783,-0.1125677824020373,9.763385772705078
1.0070586204528809,0.0020263553597033,-0.00176767189987,-0.001740925014019,-0.461061418056488,-0.1093233600258815,9.782455444335938
1.0150580406188965,-0.0005254452698864,-0.000290191732347,-0.0005708923563361,-0.4744550883769989,-0.1092808991670596,9.781885147094728
1.0230588912963867,0.0005383956013247,0.0016219918616116,-0.000241014175117,-0.4596243798732757,-0.107373237609862,9.78050136566162
1.0310859680175781,-0.0020163776353001,0.000776793109253,-0.0005726893432438,-0.4610467553138733,-0.0987946242094028,9.787673950195312
1.0350470542907715,0.0001055834582075,-0.00040002935566,0.0016587530262768,-0.4696979224681854,-0.1102267056703555,9.784785270690918
1.039057970046997,0.0013899544719606,0.0013077163603156,-0.0002440456300973,-0.4754251539707184,-0.1323604583740222,9.806525230407717
1.043057918548584,0.0023460332304239,-7.866555824875825e-05,0.0006035538390278,-0.4845650792121887,-0.1352610290050494,9.816950798034668
1.0470659732818604,0.000856674159877,-0.0003830078057944,0.0005090730264782,-0.4701540768146515,-0.1257994621992099,9.826169967651367
1.0550580024719238,0.0008561259601265,-0.0018789775203913,0.0003784471191465,-0.4486664235591888,-0.1145621761679637,9.790045738220217
1.0630669593811035,-0.0008672169642522,-0.0010540205985307,0.0016679274849593,-0.4811685681343078,-0.1184381023049342,9.79184627532959
1.0718519687652588,-0.00126942130737,0.0009910718072205,-0.0008868686854839,-0.4696783423423767,-0.119334667921065,9.784279823303224
1.0758600234985352,-0.0012715237680822,0.0014109439216554,0.0006027868948876,-0.4663726687431335,-0.1347066909074771,9.799412727355955
1.0838539600372314,-0.001482788240537,-7.508625276386742e-05,-0.0003600446507334,-0.4448431432247162,-0.1146872490644442,9.814740180969238
1.0878608226776123,-0.0003134082071483,-0.0019845806527882,-0.0015351232141256,-0.4529929161071777,-0.1208966895937907,9.813763618469238
1.0958499908447266,0.0009719775989651,-0.0011369527783244,-0.0014315522275865,-0.4615259170532226,-0.110283203423022,9.785804748535156
1.0998609066009521,0.0008511343039572,-0.0009368860628455,0.00144785316661,-0.4491406679153442,-0.094504579901694,9.789172172546388
1.1038548946380615,0.0008565286407247,-0.0018863580189645,0.0007057758048176,-0.4328344762325287,-0.0996994227170932,9.78207778930664
1.1078498363494873,-0.0014836700865998,-0.0005089580081403,0.0010141301900148,-0.4519565403461456,-0.1077738404273974,9.780058860778809
1.1118550300598145,0.0001119530061259,-0.0007127674762159,-0.0002522184513509,-0.4534347057342529,-0.1179268658161151,9.790502548217772
1.1159629821777344,0.0008575452957302,0.0020511599723249,7.931143045425389e-05,-0.4457319974899292,-0.1206966340541827,9.767696380615234
1.1198606491088867,0.0007497102487832,0.0009876794647425,0.0008154083043336,-0.4404940903186798,-0.1178806871175754,9.774779319763184
1.1238698959350586,-0.0009489185176789,0.0019601066596806,-0.0003566090017557,-0.4528989493846893,-0.1125564426183688,9.779854774475098
1.1279408931732178,0.0008602534653618,-0.000706200255081,-0.0019571748562157,-0.4740305542945862,-0.1180300712585437,9.812790870666504
1.1319551467895508,-0.0007340125739574,0.0001497725024819,-0.0029110396280884,-0.4754281342029571,-0.1184050440788257,9.794252395629885
1.1358520984649658,-0.001386119867675,-0.0001722543966025,-0.0013325880281627,-0.469301164150238,-0.1247011721134173,9.804234504699709
1.1398591995239258,-0.0004203291027806,-0.0013562331441789,0.0005949735641479,-0.4476791620254516,-0.1274602115154254,9.783832550048828
1.1438531875610352,0.0013898720499128,0.00056126806885,-3.2718293368816443e-05,-0.4496107995510101,-0.1380729079246509,9.806078910827637
1.155853033065796,-0.0010580323869362,2.956623211503031e-05,0.0001738313585519,-0.462533175945282,-0.1313633322715747,9.800419807434082
1.163973093032837,0.0002189931692555,0.0013089213753119,-0.0009879497811198,-0.471569150686264,-0.1231227591633784,9.77579402923584
1.1679351329803467,-0.0018988446099683,0.000361243262887,-0.0024770433083176,-0.464005708694458,-0.1165970563888537,9.80853271484375
1.1758670806884766,0.0012894422980025,-0.0017472393810749,-0.0037617310881614,-0.4514184296131134,-0.1074134334921824,9.782387733459473
1.1838603019714355,-0.0007326425402425,0.0001447347458451,-0.0017403489910066,-0.4624558091163635,-0.1164407879114139,9.789873123168944
1.191859245300293,-0.001055730623193,-0.000824145739898,7.098820060491571e-05,-0.4648253321647644,-0.0977825969457614,9.775274276733398
1.1998600959777832,0.0003279909724369,-0.0010324534960091,-0.0009932462126016,-0.4519507884979248,-0.1347039341926562,9.798867225646973
1.203876256942749,-0.0006272388272918,0.0010846594814211,-3.3811200410127775e-05,-0.4557539820671081,-0.129524379968642,9.8040771484375
1.207970142364502,0.0013794044498354,-0.0005049933679401,-0.000131809618324,-0.448627233505249,-0.1174886450171458,9.79475212097168
1.2119650840759277,0.0003228643909096,0.0008794940076768,-2.522906288504612e-05,-0.4399657249450683,-0.1164953783154475,9.787109375
1.2159111499786377,-0.0002036640653386,-0.0009361386764794,0.0011388249695301,-0.4500110745429992,-0.1064522564411151,9.78855800628662
1.2198641300201416,-9.21717146411538e-05,-0.0026317632291465,-0.0011125435121357,-0.4638928174972534,-0.1031030938029277,9.790501594543455
1.2238531112670898,-0.001909390091896,-0.0012473715469241,6.642239168286338e-05,-0.4782392978668213,-0.1064301803708064,9.784266471862791
1.2319252490997314,0.0016120886430144,-0.0015579953324049,-0.0006688758730888,-0.4605543911457062,-0.0992385298013675,9.77916145324707
1.2398638725280762,-0.0007368295337073,-0.0002911044284701,-3.350200131535527e-05,-0.457225888967514,-0.1117926090955722,9.806600570678713
1.2478508949279785,-0.0008557568653486,0.0011954201618209,0.0006222794763743,-0.457660973072052,-0.1070184335112559,9.798030853271484
1.2558820247650146,-0.0003128892276436,-0.0004054468590766,0.0016690134070813,-0.472044974565506,-0.1198747158050525,9.79514980316162
1.263852834701538,0.0021517418790608,1.9593164324760603e-05,0.0013576280325651,-0.4576478004455566,-0.1166109219193446,9.802305221557615
1.2718570232391357,0.0002189686056226,0.0015145987272262,-2.597877755761165e-05,-0.453397274017334,-0.1022495627403247,9.811878204345703
1.2798669338226318,-0.0023344862274825,-0.0001818118616938,-3.760587424039839e-05,-0.4639151096343994,-0.1132133603095996,9.801825523376465
1.2878658771514893,-0.0013749114004895,2.908660098910326e-05,-0.0004585678689181,-0.4643935263156891,-0.1146261394023883,9.798985481262209
1.2958629131317139,-0.0006351411575451,-0.0011512388009577,0.0021973391994833,-0.4433294832706451,-0.1174070835113513,9.778609275817873
1.303868055343628,4.989560693502426e-06,-0.0001924587413668,0.0017768456600606,-0.4529522061347961,-0.1147331818938243,9.82277488708496
1.3118560314178467,-0.0002030071336776,-0.0015657159965485,-0.0004637665115296,-0.4643895030021667,-0.1131761223077762,9.795683860778809
1.3159399032592773,-0.0004270363715477,-0.0015657774638384,-0.0014182608574628,-0.4701245427131653,-0.1146418899297702,9.802322387695312
1.3198699951171875,0.0004354843404144,-0.0014635205734521,0.0002840422093868,-0.4624791443347931,-0.1155859455466258,9.801382064819336
1.3278558254241943,0.0006454192334786,-0.0006129527464509,0.0006054607219994,-0.4629361033439636,-0.1045068055391299,9.78195571899414
1.3319120407104492,-0.000103265279904,-0.0006055780686438,-0.0009969095699489,-0.4533848166465759,-0.1099146232008922,9.816637992858888
1.3358595371246338,-0.0013775309780612,2.880673855543152e-05,0.0012589371763169,-0.4505387246608734,-0.0973289459943759,9.79237461090088
1.3398635387420654,0.0008608775679022,0.0002482486888766,-0.0008795806206762,-0.4572212994098663,-0.1074871122837054,9.808979988098145
1.343860387802124,-0.0016765964683145,-0.000392650719732,-0.0012060021981596,-0.4634842276573181,-0.1037791445851313,9.824727058410645
1.347865343093872,0.000537317013368,0.0013068035477772,-0.000246166717261,-0.4615766704082489,-0.1022547557950007,9.821823120117188
1.3518593311309814,-0.0014851272571831,-7.869885303080079e-05,0.0001803277991712,-0.4519606828689575,-0.1012897491455066,9.807201385498049
1.3559694290161133,-0.0014799203490838,0.0021570823155343,-0.0014043874107301,-0.4634213149547577,-0.0958999320864665,9.786293983459473
1.3598644733428955,-0.0007358407601714,-0.0016752746887505,-0.0004680473357439,-0.4643892049789428,-0.11697270721197,9.787644386291504
1.3678514957427979,-0.0012688497081398,-0.0017807418480515,-0.0001426958478987,-0.4767961204051971,-0.1202510371804225,9.774280548095703
1.3718605041503906,0.0008598824497312,-0.0005049670580774,0.0007115141488611,-0.4677251577377319,-0.119317404925822,9.780471801757812
1.3758573532104492,-0.0011623001191765,-0.0006172559224069,0.0011371434666216,-0.4701586365699768,-0.1041409745812404,9.801885604858398
1.3798656463623047,-0.0022295918315649,-0.0008233471307903,0.000813799444586,-0.4705943465232849,-0.105510316789149,9.797613143920898
1.3838634490966797,-0.0002041510306298,0.0002354369498789,7.192324846982953e-05,-0.46731898188591,-0.1337843537330615,9.81078052520752
1.3878543376922607,-0.0015930290101096,-0.0014697662554681,0.0018761195242404,-0.4615441262722015,-0.1294927299022662,9.809455871582031
1.3918483257293701,-0.0013728794874623,-0.0013581735547631,0.000919172540307,-0.4543305933475494,-0.129300534725188,9.759637832641602
1.3959553241729736,-0.0019088925328105,0.0001331646926701,0.0006051384843885,-0.4547963142395019,-0.1207261532545077,9.773366928100586
1.3998603820800781,-0.0002177394926548,-0.000386408297345,0.0003922451287508,-0.4510048925876617,-0.1077602505683887,9.761134147644045
1.403862476348877,0.0002200297312811,-0.0002871225588023,-0.0012047183699905,-0.4576351940631866,-0.0962618663907039,9.755420684814451
1.407963514328003,0.0023511173203587,0.0002531083300709,-0.0021533705294132,-0.4528626501560211,-0.0948427468538272,9.761138916015623
1.411893367767334,0.0003270927118137,3.3242860808968395e-05,-0.0011995476670563,-0.4577138125896454,-0.0892644152045238,9.79490566253662
1.4158883094787598,0.00032786547672,-0.0007160443346947,-0.0001393971033394,-0.4596329033374786,-0.0960095748305308,9.808160781860352
1.419858455657959,-0.0007397357258014,-7.80730042606592e-05,7.698172703385354e-05,-0.4519786536693573,-0.0921638533473002,9.803444862365724
1.4238505363464355,0.0006482758326455,0.0004526905249804,0.0007197526283562,-0.4624942243099212,-0.1036186963319766,9.803829193115234
1.4319088459014893,0.0002286754315719,0.0009594412986189,0.0005092886276543,-0.468820184469223,-0.1022872254252421,9.80668830871582
1.4398880004882812,0.0004338462604209,0.0008823396638035,-0.0004530120640993,-0.4586634635925293,-0.1112512052059161,9.793368339538574
1.4478559494018555,-0.0014767332468181,0.0017432322492823,-0.0027941111475229,-0.4600934386253357,-0.1021177545189845,9.785804748535156
1.4558608531951904,-0.0010520106879994,-0.000513671664521,-2.2596213966607983e-05,-0.4744944870471954,-0.1036724299192416,9.795741081237791
1.4606540203094482,-0.0011085490696132,-7.54932407289744e-05,-0.00046152388677,-0.4757778644561767,-0.1107901036739337,9.78465461730957
1.4646680355072021,-0.0005284832441248,0.0002418828662484,8.063716813921926e-05,-0.4820886552333832,-0.1092765778303134,9.776320457458496
1.4687678813934326,-0.0005233135307207,-0.001457754522562,-0.0008887061849236,-0.4801188111305237,-0.1053037047386157,9.74681568145752
1.476660966873169,0.0001119141234084,0.0016218739328905,0.0006146170198917,-0.4596318006515503,-0.1064794883131969,9.798171043395996
1.484652042388916,-0.0016175007913261,0.0018226250540465,0.0021140715107321,-0.4735149145126343,-0.1070144996047007,9.81672191619873
1.4886589050292969,-0.0012704104883596,2.9321992769837403e-05,0.0001801555044949,-0.4592022001743316,-0.1046632677316653,9.82379913330078
1.4926509857177734,0.0001157792285084,-0.0028336711693555,-0.0012072836980223,-0.458189994096756,-0.1361194252967822,9.807127952575684
1.4966652393341064,0.0012822023127228,0.0002348613925278,0.0001822584308683,-0.4572620093822479,-0.1195795536041247,9.82751178741455
1.5006890296936035,0.001606510602869,0.001091766403988,-0.0006676376797258,-0.4672748446464538,-0.1089292168617236,9.806130409240724
1.5046546459197998,0.0008527144091203,-0.0013640434481203,-2.89813615381716e-05,-0.4547781348228454,-0.1068528965115535,9.77950382232666
1.5088112354278564,0.0004351225215941,-0.001260387012735,0.0013448158279061,-0.4568201303482055,-0.1093781664967525,9.791645050048828
1.5126519203186035,-1.7009442672133446e-06,-0.0012541969772428,0.0010324236936867,-0.4605777859687805,-0.1165111139416682,9.79802417755127
1.5166590213775635,0.0001061758957803,-0.0009409743361175,0.0014554355293512,-0.4720446765422821,-0.1069504693150508,9.792903900146484
1.5246479511260986,-0.0011671864194795,0.0002349878195673,0.001137651503086,-0.4620088636875152,-0.1089058220386493,9.807153701782228
1.5326523780822754,0.0018154503777623,-0.0001884154044091,0.0008220276795327,-0.476866215467453,-0.1227960288524615,9.808497428894045
1.5406484603881836,-0.002338589169085,0.000346498331055,0.0011499938555061,-0.4625571966171264,-0.1137777566909778,9.81337833404541
1.5446484088897705,-0.0016964836977422,-0.002850217744708,0.0009128856472671,-0.4529308080673218,-0.1284384876489627,9.78573226928711
1.548769474029541,0.0015801725676283,-0.0009463145397603,0.0002873078919947,-0.4509057700634002,-0.1258680671453464,9.7705078125
1.552654504776001,0.0011758805485442,-0.0013597682118415,0.001135591417551,-0.4677662253379822,-0.1193963289260852,9.798091888427734
1.5567853450775146,0.0001142426626756,-0.0011441106908023,0.000496853608638,-0.4663648903369903,-0.1161351948976504,9.816633224487305
1.5607914924621582,0.0004355186829343,-0.0001794318668544,-0.0006665578112006,-0.4635355472564697,-0.1085963100194919,9.842781066894531
1.5686464309692383,-0.0012768557062372,-0.0014489388559013,-6.0631427913904014e-05,-0.4737702310085296,-0.1045149490237224,9.801490783691406
1.5727183818817139,-0.0010596161009743,-0.0006001992151141,4.779733717441566e-05,-0.478001058101654,-0.0958075001835811,9.773965835571287
1.5806505680084229,-0.0004227480385452,-0.0012376955710351,0.0002590976655483,-0.4636590778827667,-0.0895554497838008,9.77067756652832
1.5846874713897705,0.0004296976840123,0.001639342168346,-0.0005778367631137,-0.4703317582607269,-0.0942911133170116,9.757820129394531
1.592681646347046,-0.0018120850436389,0.000360201112926,0.0006924164481461,-0.4694222807884216,-0.1322387903928744,9.792373657226562
1.5966615676879883,-0.0017008878057822,0.0024904229212552,-0.0003742990083992,-0.4636686444282532,-0.1149941459298121,9.80624008178711
1.6006484031677246,0.0008578421548008,0.0021814601495862,-0.0020681994501501,-0.4704041182994842,-0.1175023838877665,9.81375789642334
1.6047663688659668,-0.0019083458464592,-0.0014587671030312,0.0007877172902226,-0.4847400784492492,-0.1113438382744777,9.81233024597168
1.608647346496582,0.0007477218750864,-0.0016592324245721,-0.0004860972985625,-0.4751861989498138,-0.1006941497325885,9.800518989562988
1.612647533416748,0.0010718995472416,-0.0003765274304896,-0.0019678575918078,-0.476135104894638,-0.1088728457689273,9.811391830444336
1.6168415546417236,-9.828782640397549e-05,0.000159979565069,-0.0026074671186506,-0.4717983305454254,-0.1178938597440707,9.792346954345703
1.6208045482635498,0.0003327551530674,0.0010140393860638,-0.0036602728068828,-0.4680185616016388,-0.1186382323503482,9.765833854675291
1.6246483325958252,4.668137989938259e-06,0.0019716788083314,-0.0023962934501469,-0.4765212833881378,-0.1092060878872859,9.776301383972168
1.6286475658416748,0.0002282883506268,0.0013166150311008,-0.0009994991123676,-0.4784868955612182,-0.1016745865344989,9.794239044189451
1.632659912109375,0.0006320456741377,0.0033310095313936,-0.0009946986101567,-0.4785292148590088,-0.1040872633457171,9.8043794631958
1.6366620063781738,0.0002194646513089,0.0017496043583378,-0.0012144045904278,-0.4727684259414673,-0.1164590716361987,9.793344497680664
1.6406898498535156,-0.0012714324984699,0.0001494097523391,-0.0007980018854141,-0.4804177284240722,-0.1059048473834979,9.78670883178711
1.6446466445922852,0.0005394553299993,0.0014299021568149,-0.0024883525911718,-0.4756659269332886,-0.1221322715282428,9.788448333740234
1.6486809253692627,-0.0001028747064992,0.0009967968799173,-0.0003650677390396,-0.4574868977069855,-0.1371146142482745,9.816060066223145
1.656662940979004,0.0006437649717554,-0.0013307181652635,-0.0028226154390722,-0.4478552937507629,-0.117316663265227,9.777198791503906
1.660660982131958,-0.0025363047607243,-0.0006909328512847,-0.0008168318308889,-0.4488298892974853,-0.1111623197793948,9.784817695617676
1.6647839546203613,-0.003294313326478,-0.0004871250130236,-0.0009101973846554,-0.445988118648529,-0.1184266507625567,9.809038162231444
1.67264723777771,-0.0009504858171567,0.001964566996321,-0.001323424745351,-0.4450210928916931,-0.1026470363140094,9.801502227783203
1.6767029762268066,-0.0008422035025432,-0.0002670630346983,-0.0006943494081497,-0.4637358784675598,-0.1050230786204326,9.800506591796877
1.6846539974212646,-0.001910182647407,0.0012100116582587,-4.339404404163376e-05,-0.4627171754837036,-0.1231085509061801,9.785703659057615
1.6886649131774902,-0.0019042392959818,-7.535680197179316e-05,0.0001452644355595,-0.4565364420413971,-0.1158737838268268,9.778103828430176
1.692662000656128,0.0005307951942086,-0.001232601236552,-0.000164137687534,-0.4559849500656128,-0.1150221228599536,9.791424751281738
1.7006478309631348,4.387227818369865e-06,-0.0014488836750388,-0.0010155560448765,-0.4789587259292602,-0.1206592991948115,9.771411895751951
1.7046878337860107,-0.0003041148884221,-0.0012266119010746,-0.0017580785788595,-0.4645320177078247,-0.1216925904154765,9.780489921569824
1.7087719440460205,0.0033141167368739,-0.001352600287646,-0.0009987158700823,-0.4594456255435943,-0.12646186351776,9.799566268920898
1.7166626453399658,0.000949545414187,-0.0003913578111678,-0.0003698174841701,-0.4646285772323608,-0.1054501533508288,9.784829139709473
1.7206480503082275,-0.0027692723087966,-0.00028807669878,0.0005780789069831,-0.4660694897174835,-0.1154701262712466,9.789011001586914
1.7286479473114014,0.0002129899803549,-0.0011450971942394,-0.0012248530983924,-0.4521494209766388,-0.1136251017451274,9.803410530090332
1.7326931953430176,1.886044628918171e-06,0.002170561812818,-0.0006761206313967,-0.4617494940757751,-0.1169268190860736,9.788050651550291
1.7406461238861084,0.0003237597411498,-6.605172529816632e-05,-0.0003686342388391,-0.4569900929927826,-0.1165270432829844,9.809462547302246
1.7486450672149658,0.0001027042744681,0.0005710569676011,5.9957616031169824e-05,-0.483209490776062,-0.1074451804161059,9.793862342834473
1.756667137145996,-0.0007387144723907,0.0002546750474721,-0.0012199846096336,-0.4589029550552368,-0.1122236698865878,9.808018684387209
1.7608270645141602,-0.0010510182473808,0.0011851208982989,0.0002856641076505,-0.4656547605991363,-0.1058732122182834,9.783825874328612
1.7686450481414795,-0.0001010464038699,0.0009936192072927,0.0005936766974627,-0.4779639840126037,-0.1010220646858203,9.764822006225586
1.772646188735962,-0.0004129571607336,-0.0002714451402425,-0.0009005144238471,-0.4779965877532959,-0.0953307822346675,9.773327827453612
1.7766690254211426,-0.000206517172046,-0.0016621486283838,-5.630170926451663e-05,-0.4693858921527862,-0.1173884868621814,9.793724060058594
1.780649185180664,-0.0015912491362541,-0.0002743194345384,-0.0019684601575136,-0.4727673232555389,-0.1193907186388957,9.806578636169434
1.7847721576690674,0.001385953859426,0.0007900297641754,-0.0014324206858873,-0.4770306050777435,-0.1111875399947154,9.794235229492188
1.7887132167816162,0.0009686088887974,-0.0002817208878695,-0.0008828868158161,-0.4750594198703766,-0.1126910224556911,9.794793128967283
1.7926452159881592,0.0014869895530864,-0.0018809183966368,-0.0011263256892561,-0.4554151892662048,-0.1207608506083476,9.792567253112791
1.7967841625213623,0.0006445639301091,-0.0019791070371866,-0.0011203773319721,-0.450231522321701,-0.1235850155353534,9.782343864440918
1.8006470203399658,-0.000424182973802,-0.0008161955047398,0.0007996237836778,-0.4526368081569671,-0.1221992224454867,9.793272972106934
1.8046598434448242,0.0001036741305142,0.0001436308957636,-0.0009987391531467,-0.4621253907680511,-0.1279183328151691,9.787043571472168
1.8086464405059814,0.0011747654061764,3.159255720675003e-05,0.000914177391678,-0.4794033169746399,-0.1240488961338985,9.779451370239258
1.8126461505889893,-0.0004196591908112,0.0013193831546232,-0.001321799121797,-0.4698571860790252,-0.1241329014301288,9.796032905578612
1.816667079925537,-0.0003150502452626,-0.0004925564862787,-0.0002648835070431,-0.4698997437953949,-0.1031904146075236,9.814223289489746
1.8207664489746094,0.0029826960526406,-0.0020884163677692,-0.0001578251831233,-0.4727205634117126,-0.1274575442075717,9.79227352142334
1.8246581554412842,0.0006477949209511,-0.0027266074903309,0.0004781004972755,-0.4608398079872131,-0.1357271820306766,9.809359550476074
1.828646183013916,0.0009631564607843,-0.0010264930315315,-0.0006876769475638,-0.4564871191978454,-0.1212868243455874,9.806062698364258
1.8326573371887207,0.0017006973503157,0.0004619755782186,5.921395495533938e-05,-0.4697766602039337,-0.1269607990980136,9.789551734924316
1.836660385131836,-0.0007346058264374,0.0009959167800843,-0.0002559437416493,-0.4746173322200775,-0.1169167980551707,9.775212287902832
1.8406825065612793,-0.0019073521252721,0.0007867831736803,-0.0012178737670183,-0.4597771465778351,-0.1197274252772319,9.77615451812744
1.8446824550628662,0.0006387496832758,-0.0015668871346861,0.001341447699815,-0.4430719316005707,-0.1217289865016925,9.79527759552002
1.8486545085906982,0.0009677503257989,-0.0011407274287194,0.0017564934678375,-0.4545717239379883,-0.1184220165014255,9.799416542053224
1.8527493476867676,0.0022404412738978,-0.0003909552469849,0.0004845005460083,-0.4564696550369262,-0.1193246394395816,9.795125961303713
1.8567824363708496,0.0010674321092665,3.950390964746469e-05,-0.0005788966082036,-0.4550595581531524,-0.125148147344588,9.807502746582031
1.8614616394042969,-0.0021728728897869,-0.0007713725790381,-0.0010106819681823,-0.4708267152309418,-0.1192345619201648,9.807961463928224
1.8694534301757812,0.0012859066482633,0.000580956460908,-0.0018516494892537,-0.4746844470500946,-0.1117709502577769,9.811767578125
1.8734533786773682,1.0039773769676684e-05,0.0007864197250455,-0.0018524774350225,-0.4718113243579864,-0.1251513808965671,9.806485176086426
1.8814845085144043,-0.002546674804762,-0.0001707901246845,-0.0012201885692775,-0.4726969301700592,-0.1239960491657245,9.770854949951172
1.889472484588623,-0.0011654887348413,0.0004626743029803,0.0008117877878248,-0.4717083871364593,-0.1283459961414325,9.781312942504885
1.893463373184204,0.0003240995574742,0.0015267357230186,0.000497851986438,-0.4607421457767486,-0.1297903805971133,9.778958320617676
1.8975794315338135,0.0002206683857366,0.0002576520200818,-0.0017458177171647,-0.4650373756885528,-0.139389783143996,9.784127235412598
1.9014523029327393,0.0004334771074354,-0.0026200476568192,-0.0004784525372087,-0.4487690925598144,-0.1350974738597858,9.78608226776123
1.905463457107544,-0.0005229685921221,-0.0025121343787759,-0.001014950685203,-0.4525798261165619,-0.1220899298787105,9.767139434814451
1.9134774208068848,0.0004329914227128,0.0027022357098758,-0.0004585338756442,-0.4588767886161804,-0.1069801300764071,9.81374168395996
1.917452335357666,-0.0019110322464257,0.000669302418828,0.0024002478457987,-0.4450014531612396,-0.1189440339803683,9.815567016601562
1.9214634895324707,-0.0005276933661662,-0.0003897349815815,0.0004867897368967,-0.4569669365882873,-0.1166223883628833,9.823217391967772
1.925452470779419,0.0006472633685916,3.925687633454795e-05,-0.0003650388680398,-0.4636130034923553,-0.1063725799322116,9.786172866821287
1.9294538497924805,0.0005353621672838,-0.0013479001354426,0.0009092944674193,-0.4693368375301361,-0.1197800040245044,9.78704071044922
1.9374542236328125,0.0004348860820755,-7.202057167887686e-05,5.934620276093484e-05,-0.4401969313621521,-0.1174172684550273,9.789950370788574
1.941453218460083,0.0012806492159143,0.0012037841370329,0.0004919650964438,-0.4473193287849426,-0.1097093001008021,9.775257110595703
1.9494690895080566,-0.0009520292514935,-0.0001765911001712,0.000166798941791,-0.4521241784095764,-0.1269529610872256,9.785122871398926
1.9575762748718262,-0.0004191534826532,0.0019498281180858,0.0007090712897479,-0.4573849141597748,-0.095374524593352,9.78145980834961
1.9654572010040283,-0.0003211695002391,-0.0010416493751108,0.0011276686564087,-0.4669335484504699,-0.1050641909241664,9.812600135803224
1.973454236984253,-0.0008421508828178,0.0003540767356753,-0.0002562697045505,-0.4683625698089599,-0.1385461837053287,9.804893493652344
1.9774682521820068,-0.0005251860129646,0.000882867956534,0.0009241281077265,-0.4525706171989441,-0.1246687918901431,9.804471969604492
1.9814622402191162,-0.0014858024660497,-0.0012415898963809,6.11403957009317e-05,-0.4626275599002838,-0.1189612969756114,9.80970573425293
1.9855258464813232,0.0002205686178058,-0.001023206859827,-0.0014231572858989,-0.4745655953884125,-0.1083756312727916,9.802144050598145
1.9894630908966064,0.0009669873397797,0.0001412583515048,-0.0002498216927051,-0.4553999304771423,-0.1188478022813785,9.79120922088623
1.993453025817871,-0.0002045239089056,-7.055769674479965e-05,-0.0003582243807613,-0.462626576423645,-0.1390303969383227,9.80675983428955
2.001453161239624,-0.0006356370868161,-0.0004858979955315,-0.0004654400981962,-0.4626381993293762,-0.1298699229955661,9.797870635986328
2.0054690837860107,0.0008621147135272,0.0006790603511035,-0.0009905332699418,-0.4807852208614349,-0.1193040162324893,9.78400993347168
2.0094661712646484,2.092914655804634e-06,0.0001292598899453,0.0027316589839756,-0.4645155966281891,-0.1251163631677615,9.799728393554688
2.0174641609191895,-0.0020191392395645,-0.000285017536953,-0.0008838139474391,-0.4726572036743164,-0.1060316935181605,9.809738159179688
2.0254571437835693,-0.0004169172607362,-0.0007073725573718,-0.0006786109879612,-0.4606638848781585,-0.1030294001102435,9.778923034667969
2.0334644317626953,-0.0001051024300977,-0.0006090719252824,0.0014525922015309,-0.4630518555641174,-0.1015952154993999,9.779814720153809
2.0374503135681152,0.0008546483004465,0.0013005164219066,0.0023070615716278,-0.4611539542675018,-0.1083565726876246,9.795991897583008
2.0415544509887695,-0.0013784187613055,0.0020502177067101,0.0013533872552216,-0.4563974142074585,-0.1074401736259448,9.803607940673828
2.049450397491455,-0.000632798182778,0.000987394247204,0.0009240228682756,-0.4706992208957672,-0.1087443456053721,9.774126052856444
2.053450345993042,-0.0003119609318673,-0.0003928819205611,0.0002828398719429,-0.4645252525806427,-0.1155177205800998,9.792118072509766
2.05757737159729,0.0011661263415589,0.00024647382088,0.0001673204824328,-0.4530591964721679,-0.1250826716423022,9.799817085266112
2.0614614486694336,-0.000734248838853,-0.0008150856010615,-4.227599129080762e-05,-0.4697385728359222,-0.133159741759299,9.778779029846191
2.065530300140381,0.0004339512670412,-0.0006046879570931,6.822356954216964e-05,-0.4745426476001739,-0.1231501549482333,9.786871910095217
2.0694494247436523,0.0020351083949208,-0.0031498814933002,-0.0023912822362035,-0.4644880592823028,-0.1226422190666186,9.781189918518066
2.0734612941741943,0.0005413490580394,-0.0002811586018651,-0.0011010938324034,-0.4597060680389404,-0.134629502892493,9.784966468811035
2.077582359313965,0.000539829256013,0.0006748719606548,-0.0001382022164762,-0.4635399878025055,-0.1269698739051807,9.786407470703123
2.0815136432647705,-0.0025517647154629,0.0007733495440334,0.0006033387035131,-0.4621164500713348,-0.1131360232830035,9.79647159576416
2.0854742527008057,0.0012899860739707,-6.512692198157332e-05,-0.0017362711951136,-0.4817618429660797,-0.1094022542238223,9.81210994720459
2.089479446411133,0.0010709953494369,0.0021645035594701,-0.0008835247717797,-0.4755630791187286,-0.1089144945144641,9.81970500946045
2.0934572219848633,0.0005338994087651,0.0012962383916601,0.0025254776701331,-0.4568618535995483,-0.1237383633851993,9.812064170837402
2.0974502563476562,0.0004314724355936,0.0010857426095753,0.0019929092377424,-0.4554327428340912,-0.1270756572484958,9.807780265808104
2.1014504432678223,-0.001050816848874,-0.0008053127676248,-0.001845390535891,-0.4602319300174713,-0.1309112608432757,9.80922031402588
2.105452299118042,-0.0020149420015513,0.0002516196109354,-0.0008912058547139,-0.452509194612503,-0.1120661571621882,9.764628410339355
2.1134583950042725,-0.0026507393922656,-0.0007168077863752,6.953114643692978e-05,-0.4745480716228485,-0.11643749475479,9.792970657348633
2.117471218109131,0.0003267783904448,0.001311209402047,0.0003965888172388,-0.4674396216869354,-0.1138274148106563,9.840109825134276
2.121469020843506,-0.0011608295608311,-7.253675721585745e-05,0.000388444866985,-0.4621815383434295,-0.1247476264834391,9.826339721679688
2.1294734477996826,-0.0004160996177233,-0.0018762005493044,-0.0008949418552219,-0.4817383587360382,-0.1194221153855311,9.806829452514648
2.133469820022583,0.0004276625113561,-0.000397800002247,0.0002888487651944,-0.4621073007583618,-0.1145199984312045,9.777073860168455
2.1414480209350586,0.0008554878877475,-7.296656258404251e-05,0.0002857567742466,-0.4525018632411957,-0.111007787287234,9.758467674255373
2.14546799659729,-0.0027590612880885,0.0001352143008261,0.0012383298017084,-0.449142187833786,-0.1153866872191417,9.760343551635742
2.149451971054077,-9.966304060071708e-05,0.0004626614972949,-3.16817313432694e-05,-0.4482136368751526,-0.1250258982181537,9.78024959564209
2.161515235900879,-0.0005223167827352,-0.0010318702552467,0.0004925280809402,-0.475539356470108,-0.1165500357747065,9.811141967773438
2.1655750274658203,-0.0001957101048901,-0.0006968937814235,-0.0021639841143041,-0.4760060310363769,-0.1141619905829417,9.808310508728027
2.169577121734619,-0.0015781811671331,-0.0003853056114166,-0.001106739975512,-0.4640513360500335,-0.102181442081927,9.792256355285645
2.1774561405181885,-0.0004176680813543,0.0014232323737815,-0.0009880089201033,-0.4601477682590484,-0.1130188629031169,9.76555061340332
2.182253122329712,0.000930102309212,-0.0007871645502746,0.0016755228862166,-0.4572170078754425,-0.1232266277074801,9.801013946533203
2.186285972595215,0.000224916730076,-0.0005954317748546,-0.0007803277112543,-0.4506505131721496,-0.1227700263261783,9.805426597595217
2.190272092819214,-0.0011658504372462,0.0017442931421101,-0.000670492183417,-0.4473330080509186,-0.1147207692265498,9.837394714355469
2.1982598304748535,0.001498517463915,0.0016307457117363,0.0002946993336081,-0.4697532653808594,-0.1126829758286464,9.795461654663086
2.202249050140381,-0.0014763742219656,0.0013280684361234,-0.0010917703621089,-0.4458487033843994,-0.1179245784878718,9.8056001663208
2.21025013923645,-0.0011646952480077,0.0006816489621996,-0.0008846642449498,-0.4534254670143127,-0.1334672868251788,9.747983932495115
2.21425724029541,0.0004330012015998,-0.0011328163091093,-0.0002528596669435,-0.4706292450428009,-0.1225297749042499,9.747435569763184
2.2184441089630127,-0.0002057990059256,-0.0011331920977681,6.711762398481383e-05,-0.4706871211528778,-0.124100863933562,9.78073024749756
2.2222609519958496,-0.0017961028497666,-0.0015473514795303,-0.0011156606487929,-0.472137451171875,-0.1308025568723666,9.784422874450684
2.2262580394744873,0.002673254115507,0.001527514308691,-0.0003398288972675,-0.4769409298896789,-0.1423293054103839,9.787750244140623
2.23024582862854,0.0004338413709774,-0.0004938440397381,-0.0004604668356478,-0.4822735786437988,-0.1171657294034945,9.838661193847656
2.234252691268921,0.0004371707327663,0.00121119862888,-0.0015177843160927,-0.4784897565841675,-0.1263632029294955,9.865242004394531
2.2422397136688232,-0.0007323275203816,0.0007816234137862,-0.0013061519712209,-0.4611380994319916,-0.1026156991720187,9.8030424118042
2.246264696121216,-0.0005284214275889,0.0003546029329299,0.0004970799200236,-0.4596929848194122,-0.091526389122008,9.773743629455566
2.254267692565918,0.0006519587477669,0.0004711810033768,-0.0018511204980313,-0.4564036726951599,-0.1223261952400195,9.810611724853516
2.258366823196411,0.0005448107840493,-0.0010193940252065,-0.0021674041636288,-0.4635494351387024,-0.1141165345907199,9.799756050109863
2.2622718811035156,0.0011813970049843,-0.0026315301656723,0.0017653973773121,-0.4803566336631775,-0.1088963598012912,9.808801651000977
2.2664198875427246,0.0003169765695929,-0.0014542685821652,-0.0001427941024303,-0.4789454936981201,-0.1223949491977679,9.828254699707031
2.274263858795166,-0.0003065268974751,-0.0009265220724046,0.0006002127192914,-0.4688237607479095,-0.1232681125402438,9.809223175048828
2.278273820877075,-0.000945342471823,-0.0013394753914326,-0.0018486431799829,-0.4707399904727936,-0.1217752769589412,9.799722671508787
2.2822680473327637,0.0017191745573654,-0.0002624953631311,-0.0033330316655337,-0.4740200638771057,-0.1245957389473903,9.78969669342041
2.2870547771453857,0.0010233606444671,0.0005617465358227,-0.0020450379233807,-0.4514721035957336,-0.1155396774411189,9.773308753967283
2.2910408973693848,0.0028804754838347,-0.0007146543357521,-0.0003466987982392,-0.4582240581512451,-0.1064323857426631,9.785895347595217
2.2950408458709717,0.0023687477223575,0.0002541437279433,-0.0007670973427593,-0.4505163431167602,-0.1093164607882487,9.78016757965088
2.299074649810791,0.0004368961090222,-0.0008146623149514,-0.0006672954186797,-0.4462564885616302,-0.1098380759358394,9.802989959716797
2.303072690963745,-0.0010497856419533,-0.0003858811687678,-0.0016232798807322,-0.4577825963497162,-0.1280930787324893,9.82097625732422
2.307054042816162,-0.0012671212898567,-0.0001776230055838,-0.0001406241208314,-0.4697498083114624,-0.1156831234693515,9.821478843688965
2.3110568523406982,0.0012887370539829,0.0006695024203509,-1.6642734408378682e-05,-0.4582623541355133,-0.1199583262205111,9.81579875946045
2.319060802459717,-0.0003097545122727,-0.001139999134466,0.0005016769282519,-0.4658448100090027,-0.1015843898057925,9.772150993347168
2.3270657062530518,0.0020307195372879,0.001729350304231,0.0012608156539499,-0.4687055647373199,-0.1106535121798503,9.769271850585938
2.3350579738616943,0.0006485326448455,0.0010973617900162,0.0001902244985103,-0.4625438451766968,-0.1069938018918025,9.808748245239258
2.3430638313293457,-0.001053265761584,-7.183081470429901e-05,-0.0003480352461338,-0.4611071646213531,-0.1189463362097728,9.805350303649902
2.351055145263672,-0.0009400355629622,0.0015341609250754,-0.0013040099292993,-0.4687083065509796,-0.1163528412580478,9.77072525024414
2.355194091796875,0.002245147479698,0.0006702351383864,0.0002979710698127,-0.4653734862804413,-0.1140264868736255,9.7754487991333
2.359071969985962,0.0003248607972636,0.0006638758350163,0.0014651855453848,-0.4471586346626282,-0.1139775887131679,9.764074325561523
2.3670661449432373,0.0005444200942292,-7.395818829536441e-05,-0.0002344837412238,-0.4471572041511535,-0.1182706803083407,9.760234832763672
2.3710410594940186,-0.0016914391890168,-0.0004946796689182,-0.0014166194014251,-0.4567607641220093,-0.1212875545024859,9.794403076171877
2.3750641345977783,0.0006474209949374,0.0004531792365014,0.001038328744471,-0.4630377292633056,-0.1357029676437366,9.809087753295898
2.3798820972442627,0.0009244342800229,0.0006330315954983,0.0007900991477072,-0.4603364765644073,-0.1126343533396708,9.821981430053713
2.383867025375366,-0.0016931828577071,-0.0017772265709936,0.0010274699889123,-0.469284325838089,-0.1089677885174739,9.818671226501465
2.3926501274108887,-0.000222762231715,0.002404639031738,-8.100690320134193e-05,-0.4598228931427002,-0.1016931831836688,9.794647216796877
2.396657943725586,0.0003287995932623,-0.0007215398363769,0.0014667832292616,-0.443313717842102,-0.1188666820526111,9.784374237060549
2.4046831130981445,0.0007545937551185,0.0002438134979456,0.0013672183267772,-0.4514822661876678,-0.1360801756381976,9.780648231506348
2.4086410999298096,0.0003331667976453,-0.0006170070264488,-0.0006674388423562,-0.4620481729507446,-0.1409141123294818,9.7927827835083
2.4166581630706787,-0.0004097429919056,3.309012390673168e-05,0.0005966387689113,-0.4681615829467773,-0.1433915197849261,9.797564506530762
2.420642137527466,-0.0005213260883465,-0.0002894545905292,-0.0003412496298551,-0.4567353725433349,-0.1260945349931705,9.798113822937012
2.424762010574341,1.2900447472929956e-05,0.0010939240455627,-0.0001198058016598,-0.447642058134079,-0.1164546608924853,9.781558990478516
2.4287731647491455,0.0007573334733024,0.0011952649801969,-0.0003423509187996,-0.4648445248603821,-0.1107819825410831,9.791050910949709
2.4366562366485596,1.6827601939439774e-05,-0.0024036113172769,-0.000887478236109,-0.4619707465171814,-0.119826368987559,9.775379180908203
2.4406392574310303,0.0009678421774879,-0.000610816059634,0.0005091065540909,-0.4552987515926361,-0.1241592243313777,9.790510177612305
2.448639154434204,0.0024565015919506,3.128126263618461e-05,-0.000658615026623,-0.4404390454292297,-0.1073363348841655,9.771634101867676
2.4526402950286865,-8.958124089986086e-05,-0.00081222737208,-0.0017308569513261,-0.451922595500946,-0.1102423146367061,9.780596733093262
2.460700273513794,-0.0014850947773084,0.0007679795380681,0.0005295989103615,-0.4686635732650757,-0.1138893812894809,9.75820255279541
2.464665174484253,-0.0010459441691637,0.0001250221394002,0.0019970526918768,-0.4603993594646454,-0.1068101823329913,9.762091636657717
2.4726402759552,-0.0005222518229857,-0.0001930966973304,0.0025297747924923,-0.4542922973632812,-0.0881523713469493,9.760753631591797
2.47666335105896,0.0012802317505702,-8.54113604873417e-05,0.0014732857234776,-0.4605589509010315,-0.1007056161761272,9.789666175842283
2.480642318725586,0.0004366460489109,0.0017374267335981,-0.0004369160160422,-0.4653480350971222,-0.1145812794566142,9.789621353149414
2.488685369491577,-0.0012610728153958,-8.365814574062815e-05,0.0008264267817139,-0.4715414643287658,-0.131429463624953,9.810823440551758
2.49666428565979,-0.0003037193091586,-0.0002916217781603,-0.000650159548968,-0.4613790512084961,-0.1117239370942103,9.78419303894043
2.5006392002105713,-0.0006220202194526,0.0010913317091763,-0.0005342219956219,-0.449416846036911,-0.1264870166778552,9.774149894714355
2.5086402893066406,0.0011853844625875,0.0007735253311693,-0.0009632920846343,-0.4269305169582367,-0.1255654990673053,9.780387878417969
2.5126402378082275,-0.0003037534188479,0.0026881559751927,-0.0006377701647579,-0.4288521409034729,-0.1078865230083453,9.78282642364502
2.520641326904297,0.0019309058552607,-0.0003915186971426,-0.0006478019058704,-0.469584047794342,-0.1184653043746936,9.795973777770996
2.5246403217315674,-0.0004128174623474,-0.0007216120138764,0.0005186507478356,-0.4728773236274719,-0.1174681186676013,9.787450790405272
2.5326461791992188,0.0005494432989507,-0.001881981967017,-0.0017197444103658,-0.4666835963726043,-0.1094095557928073,9.802729606628418
2.5374679565429688,0.0013804064365103,-0.0011425698176026,-0.0007049473933875,-0.4672732055187225,-0.1112168729305255,9.77581024169922
2.54223895072937,-0.0006507068756036,-0.0016663642600178,-0.0014202846214175,-0.4656969606876373,-0.1271428018808353,9.785588264465332
2.5502429008483887,-0.0010493368608877,0.0003479996230453,-0.0006488054059445,-0.4556929469108581,-0.1185155212879168,9.807477951049805
2.554262638092041,-0.0007301700534299,0.0003510282840579,-0.0007536127232015,-0.4384833574295044,-0.1027536541223513,9.811847686767578
2.558387041091919,0.0009750516619533,-0.001353797968477,-0.0015054866671562,-0.4490060806274414,-0.0984567552804934,9.814690589904783
2.562363862991333,-0.000305931083858,0.0014117448590695,-0.0002158302813768,-0.4628942906856537,-0.0980104580521571,9.820857048034668
2.5702390670776367,-0.0012601013295352,-0.0014519528485834,-0.002571806544438,-0.467593103647232,-0.1164112389087665,9.765676498413086
2.574265241622925,0.0004479011986404,-0.0010264629963785,-0.0012920959852635,-0.4665663242340088,-0.1112417951226222,9.777010917663574
2.5822439193725586,0.0004405271029099,-0.0018933922983705,0.000729126855731,-0.4753099381923675,-0.1261651664972293,9.802663803100586
2.5862948894500732,0.000862498418428,2.538063563406485e-05,0.0014770561829209,-0.4661994576454162,-0.1294127106666553,9.794614791870115
2.5910539627075195,0.0003140420885756,0.0015222685178741,-0.0005211369134485,-0.4717268943786621,-0.116444721817969,9.792806625366213
2.595038890838623,0.0005468499148264,0.0013012645067647,0.0006365939043462,-0.471461683511734,-0.1179590076208102,9.790360450744627
2.5990500450134277,0.000766466720961,0.0003462671302258,-0.0009653507731854,-0.4629290103912353,-0.1309555023908603,9.810714721679688
2.6030519008636475,-0.0010483840014785,0.0003515374846756,-0.0010757031850516,-0.4499823451042175,-0.1281391531229007,9.820770263671877
2.6070480346679688,0.000441221287474,0.0008762320503592,0.0001006135717034,-0.4571763575077057,-0.1210006475448596,9.826017379760742
2.6110498905181885,-0.0010488490806892,0.0022708247415721,-0.0013815015554428,-0.4576306045055389,-0.1242372542619693,9.805597305297852
2.61506986618042,0.0009722114773467,0.001203182269819,-0.0006441357545554,-0.4590102434158325,-0.1255928874015796,9.786120414733888
2.619067907333374,0.0001125644193962,0.0003496261779218,0.0006231283769011,-0.4671114385128021,-0.1087243929505336,9.742439270019531
2.6230380535125732,1.4847610145807266e-05,-0.0006140400655567,0.0007317387498915,-0.4623488485813141,-0.1039847433567035,9.768092155456545
2.627089023590088,-0.0010527072008699,0.0003402987495064,0.0008447561413049,-0.4667292237281799,-0.1051101982593524,9.80092716217041
2.6310489177703857,-0.0011564914602786,-0.0018817491363734,0.0005076942034065,-0.463821530342102,-0.1208799257874476,9.793124198913574
2.635038375854492,-0.0013689044862985,-0.0008323492947965,0.0017951866611838,-0.4609383940696716,-0.1232246384024608,9.789935111999512
2.639061450958252,-0.0025332169607281,0.0001344056800007,-0.0013907183893024,-0.4785922169685364,-0.1132337301969516,9.798835754394531
2.643049478530884,-0.0010492636356502,0.0015119335148483,0.0005316501483321,-0.4748308956623077,-0.1167257130146014,9.832569122314451
2.6470634937286377,-0.000943511724472,0.0019603101536631,-0.0002379724755883,-0.4602896273136139,-0.1132342964410769,9.821701049804688
2.6510396003723145,-0.0006286081043072,0.0003564453218132,7.82697461545467e-05,-0.4501217007637024,-0.1183744370937335,9.78846836090088
2.6551613807678223,0.0001168840099126,0.000465081539005,-0.0004534572362899,-0.4534525573253631,-0.1207026168704021,9.774161338806152
2.6590614318847656,-0.0004057679907418,-0.0006033859681338,-0.0001322049647569,-0.4606516063213348,-0.122160919010638,9.774584770202637
2.6630516052246094,-0.001908496604301,0.000995357055217,0.0002918899990618,-0.4520491361618042,-0.1140154451131808,9.768977165222168
2.667189598083496,-0.0010478261392563,-0.0008144166786223,-0.0001449454575777,-0.4424926340579986,-0.1160206049680697,9.783734321594238
2.6710383892059326,0.00129152496811,-7.51486513763665e-05,0.0010480834171175,-0.4438152909278869,-0.1221315786242473,9.77650547027588
2.675046443939209,-0.0002017099177464,0.0008880705572664,-0.0002330406568944,-0.4610982835292816,-0.1083961501717555,9.790830612182615
2.679051637649536,-0.0012680424842983,-0.0003925387281924,-0.0003541824407875,-0.4754969775676727,-0.0982865542173373,9.8112154006958
2.687060594558716,0.0001104775583371,0.0012141088955104,-0.0023677397985011,-0.4568389654159546,-0.1106140092015254,9.770906448364258
2.6950714588165283,0.0006523458287119,0.0021664318628609,-0.0008654142729938,-0.4543687403202057,-0.1188106611371028,9.777371406555176
2.699049472808838,-0.000938820070587,0.0007984517142176,-0.0031063796486705,-0.4763878285884857,-0.1153355613350856,9.777297973632812
2.7030603885650635,-0.0013698540860787,-0.0010267111938446,-0.0010931668803095,-0.4663087129592895,-0.1293223202228534,9.770663261413574
2.7110536098480225,-0.0004096152260899,-0.0011317017488181,-0.0014111944474279,-0.4644138514995575,-0.136069133877753,9.784883499145508
2.7190535068511963,-0.0007348376093432,-7.64459837228059e-05,0.0006147138774394,-0.4639431536197662,-0.1241419315338122,9.791115760803224
2.7270514965057373,0.0033150860108435,-0.0010294890962541,9.06437635421754e-05,-0.470658004283905,-0.1155027225613582,9.7725191116333
2.7350521087646484,0.0011819946812465,0.0003486399073153,0.0002993629314005,-0.4734893441200256,-0.1001428812742221,9.774591445922852
2.743053913116455,0.0001228494802489,2.286862581968307e-05,-2.195872366428376e-05,-0.4816366136074066,-0.1189551353454577,9.812432289123535
2.751063823699951,-0.0006275138584896,-0.001247408799827,0.0006096879951655,-0.4582146406173706,-0.133258134126662,9.796798706054688
2.7551629543304443,-0.0019039236940443,0.0009866335894912,0.0006173085421323,-0.4539067447185516,-0.1318444609642017,9.8010835647583
2.7590999603271484,-0.0024378686212003,0.0003490783274173,0.0011478206142783,-0.46060711145401,-0.113187216222285,9.800689697265623
2.7631990909576416,0.0020366692915558,-0.0009160048794001,-0.0020440309308469,-0.469694972038269,-0.1208340004086482,9.799214363098145
2.76705002784729,-9.250862058252096e-05,-0.0018793286290019,-0.00109518552199,-0.460612028837204,-0.1327646970748889,9.795869827270508
2.7750730514526367,0.0027761999517679,0.0005654038395732,-1.4257151633501122e-05,-0.4682044088840484,-0.1106766089797008,9.767443656921388
2.783055067062378,-0.0002016230719164,0.0001350929960608,0.0007218560203909,-0.4687375724315643,-0.0983799472451198,9.803617477416992
2.78705096244812,-0.0014804813545197,0.0010911105200648,0.0007242290303111,-0.4725746810436249,-0.1074823811650264,9.806897163391112
2.795175075531006,0.0003310646861791,0.0015218099579215,0.0001983596011996,-0.4529520869255066,-0.1131618246436107,9.795494079589844
2.7990670204162598,-0.0010517420014366,3.559095785021775e-05,-0.0005486374720931,-0.460071325302124,-0.1158127486705768,9.766679763793944
2.8030519485473633,0.0013960025971755,-0.00134660420008,-0.000772276893258,-0.4715321660041809,-0.1172375530004489,9.744131088256836
2.807065963745117,0.0001202248968183,0.0003459381405264,0.0007263966836035,-0.469149112701416,-0.1225263178348529,9.753146171569824
2.8111469745635986,-0.0003087125951424,0.0009884822648018,0.0005131429061293,-0.4672443866729736,-0.1144680082797992,9.76316738128662
2.815052032470703,0.0003370292251929,-0.0001765987835824,-0.002045405562967,-0.4600891768932342,-0.1246363222599017,9.792134284973145
2.81906795501709,1.2522214092314243e-05,0.0015257397899404,-0.0007605645805597,-0.4529515206813812,-0.1127436608076083,9.80739688873291
2.8230531215667725,-0.0002017811639234,0.0006661512888967,0.0012577408924698,-0.4720926582813263,-0.1194599866867053,9.815373420715332
2.8270530700683594,-0.0014741086633875,0.0014304448850452,-0.0016188113950192,-0.486038863658905,-0.1184678226709353,9.809712409973145
2.831064462661743,-0.0033945597242563,0.0024744737893342,-0.0005532158538699,-0.4697271287441253,-0.1251509189605701,9.81014347076416
2.835080623626709,1.3121869415044785e-05,0.0015223844675347,0.0004105577245354,-0.4663575887680053,-0.1299275755882251,9.799213409423828
2.8390614986419678,-0.0008371807052753,-0.0002890462055802,8.40174034237862e-05,-0.4643841087818146,-0.1111066639423358,9.763641357421877
2.8430395126342773,0.0001173028722405,-0.0001758022699505,-0.0015153605490922,-0.4615619778633117,-0.1255505234003055,9.790165901184082
2.8470585346221924,0.0015000590356066,0.0006675960030406,0.0013665007427334,-0.462991714477539,-0.1270563602447497,9.795913696289062
2.8510396480560303,0.0026747528463602,-7.351045496761799e-05,-8.308328688144675e-06,-0.4649848341941833,-0.121332950890063,9.806331634521484
2.855097532272339,0.0008722437778487,-0.0005924166180193,-0.0015191226266324,-0.4578155279159546,-0.1167476549744594,9.830604553222656
2.859055519104004,-0.0012675485340878,-0.0024178123567253,-3.348384052515e-05,-0.4726462364196777,-0.1109374091029155,9.833490371704102
2.863100528717041,-0.0017956108786165,-0.001136660343036,-0.0002397666685283,-0.4602300524711609,-0.1187097728252398,9.85723876953125
2.8671696186065674,-0.0024350907187908,-0.0024133815895766,-0.0002481550909578,-0.4534733891487121,-0.1348147243261325,9.823450088500977
2.8710694313049316,-0.0009485477348789,-0.0014658796135336,0.0023141461424529,-0.4572516679763794,-0.13946335017681,9.793949127197266
2.8750505447387695,9.297742508351805e-06,2.329377457499527e-05,0.0018944037146866,-0.4687352776527405,-0.1112629324197757,9.795957565307615
2.8790745735168457,0.0004338417202234,-0.0008209289517253,0.0016802530735731,-0.4721199572086334,-0.1127544566988933,9.815457344055176
2.883101463317871,0.0015108602819964,-0.0012490316294133,0.0001931702718138,-0.4682782888412475,-0.1198899075388896,9.806424140930176
2.8870604038238525,0.0007547689601778,0.0013023077044636,0.0017959624528884,-0.4673415422439575,-0.1165992468595492,9.816875457763672
2.8910584449768066,-0.000522798509337,0.0012942967005074,0.0021130004897713,-0.4548987448215484,-0.1136700361967074,9.816481590270996
2.8950514793395996,-0.000841025263071,-0.0005035761278122,0.0010371766984462,-0.4587187170982361,-0.1323837786912906,9.81159496307373
2.899061441421509,-0.0008438527001999,-0.0008147943299263,-2.6978086680173776e-05,-0.4639909267425537,-0.1156367883086192,9.82248592376709
2.9030404090881348,-0.0006289880839176,0.0001399002503603,-0.0001308438368141,-0.4649479389190674,-0.1080113127827632,9.821707725524902
2.9070496559143066,-0.0005187271744944,0.0014030875172466,0.0022159796208143,-0.4778204560279846,-0.1036211252212512,9.795056343078612
2.9110546112060547,-0.0009455714607611,0.0004515773616731,8.610775694251055e-05,-0.4682978987693786,-0.1287001073360431,9.765153884887695
2.915100574493408,-0.0004125282284803,-0.0004958896897733,-0.0007685841992497,-0.455774188041687,-0.1426766812801349,9.764525413513184
2.919069528579712,0.0002279215259477,-0.0010273016523569,-0.0016238940879702,-0.465379536151886,-0.1188450455665576,9.78554344177246
2.923048496246338,0.0005491728661581,0.0011040887329727,-0.0020371067803353,-0.4721005260944366,-0.118491008877753,9.808774948120115
2.9270524978637695,0.0002257977612316,0.0005733482539653,-0.0012950454838573,-0.4740557670593261,-0.1161232590675341,9.81590747833252
2.9310405254364014,-0.0003051756648346,-0.0008186197374016,-0.0010965405963361,-0.4759850800037384,-0.1186519563198077,9.853924751281738
2.9350621700286865,0.0009634427260607,0.0016180655220523,0.0021162824705243,-0.4678864777088165,-0.1166969537734973,9.834455490112305
2.939058303833008,0.002040003426373,-0.0003840925637632,0.0003060279414057,-0.4501193761825561,-0.1107413470745074,9.789100646972656
2.943049192428589,-0.0005147220217622,-0.0021910034120082,-0.0019469042308628,-0.4467112123966217,-0.1130865886807429,9.778429985046388
2.9470701217651367,-0.0019011036492884,-0.0008140101563185,-0.0013041370548307,-0.457716166973114,-0.129847466945647,9.783592224121094
2.951057195663452,0.0005459241801872,-0.0010306616313755,-0.0003441637381911,-0.4663413166999817,-0.1264948993921268,9.783586502075195
2.9551563262939453,0.000754366046749,-0.0012487126514315,0.0018874029628932,-0.4596529006958008,-0.1270709782838809,9.797837257385254
2.9590611457824707,0.0009692731546238,2.4163862690329785e-05,0.0018953992985188,-0.453936368227005,-0.114178843796252,9.810293197631836
2.9670491218566895,0.0022399278823286,-8.68877395987511e-05,-0.0002379440702497,-0.4711284637451172,-0.1042274087667453,9.814733505249023
2.9710381031036377,0.002673280192539,-0.0010444230865687,0.0018956186249852,-0.4769080579280853,-0.1007544696331012,9.805115699768066
2.9750702381134033,-0.0019047535024583,0.0012027547927573,0.0004083774983882,-0.4596608877182007,-0.1069742590188968,9.800824165344238
2.9790523052215576,-0.0004128187429159,0.00014140130952,-0.0004460080526769,-0.473486840724945,-0.1235908046364772,9.775066375732422
2.987866163253784,-0.0004110907902941,-0.0015631252899765,0.0002903221175074,-0.4438199698925018,-0.1125880628824222,9.77512550354004
2.9918391704559326,-0.0006282973918132,-0.0002927761524915,0.0004069665446877,-0.4625042676925659,-0.0964731872081744,9.797019958496094
2.999857187271118,1.0931282304227352e-05,-0.0011454273480921,0.0012524439953267,-0.4520350098609924,-0.1055973619222628,9.817489624023438
3.003850221633911,0.0006545929936692,0.0004662270657718,-0.0012952610850334,-0.4553883969783783,-0.1166211441159236,9.822161674499512
3.0078482627868652,-0.0003029876388609,-0.0008061320986598,-0.0024683063384145,-0.4548710882663727,-0.1251280605792987,9.79985809326172
3.0119740962982178,0.0015037625562399,-0.001450941665098,-0.0013004634529352,-0.4644469618797302,-0.1045648753643024,9.799409866333008
3.0158751010894775,9.022769518196584e-06,0.0008788942359387,0.0017930045723915,-0.4701685309410095,-0.1188662797212588,9.785540580749512
3.0198564529418945,-0.0013699682895094,0.0001477310433983,-0.0006544389761984,-0.4534587562084198,-0.1298308074474322,9.778860092163086
3.023853302001953,-0.0004153323243372,-0.0013402001932263,-0.0015138983726501,-0.4638903737068176,-0.1294081807136523,9.791216850280762
3.0318827629089355,-0.0007332215900532,0.0002382223028689,0.0015722974203526,-0.4515761733055115,-0.1223150864243495,9.805996894836426
3.0398647785186768,0.0007618987001478,0.0004660440608859,-0.0017178715206682,-0.4735260009765625,-0.1017570197582232,9.804611206054688
3.047846794128418,-0.0008381307125091,-0.0008169622160494,0.0001877476461231,-0.470672070980072,-0.1208348199725139,9.797956466674805
3.0558414459228516,0.0008731564739719,-0.0023008377756923,-0.000660749617964,-0.463505208492279,-0.1117770597338664,9.7965726852417
3.063861608505249,0.0002227969234809,0.000132224522531,0.001680904533714,-0.4591656923294067,-0.1198085546493518,9.786507606506348
3.071838617324829,-0.0025478573516011,0.001095631159842,0.0009395368397235,-0.4672783017158508,-0.1208044514060008,9.782801628112791
3.07585072517395,-0.0010581515962257,0.0004594423808157,0.0001934343017637,-0.4649265706539154,-0.1217789128422725,9.79843521118164
3.080002784729004,0.0016079251654446,0.0006832852959632,-0.0021257090847939,-0.4672732353210449,-0.120270289480685,9.78416633605957
3.083970785140991,-0.0013762176968157,-0.0003859263379126,-0.0001315386034548,-0.4744965732097626,-0.1049564257264125,9.793198585510254
3.091874599456787,-0.0008356977486982,0.0003540969919413,-0.0010827369987964,-0.4567568302154541,-0.1204703003168094,9.821599006652832
3.0958406925201416,-0.0010400010505691,0.0004677122924476,-0.0028880606405436,-0.4582168459892273,-0.1138316169381129,9.833000183105469
3.099853754043579,0.000437956303358,0.0021652858704328,-0.0009657684713602,-0.4591438174247741,-0.108017176389693,9.815507888793944
3.1038594245910645,0.0020382641814649,-0.0014607403427362,0.0006183902733027,-0.4643994569778442,-0.1017029434442508,9.79699993133545
3.111842632293701,0.0003285475540906,-0.0001899451017379,-0.0011723120696842,-0.4647731184959411,-0.1106424257159221,9.77654266357422
3.119849443435669,0.000121938297525,0.0008869767189025,-0.000863735564053,-0.4715376794338226,-0.1232030317187297,9.79164981842041
3.1238417625427246,-0.0007314223330467,2.7827685698866942e-05,0.0008331416174769,-0.470579594373703,-0.1092988252639758,9.783658027648926
3.1278927326202393,-0.0009467894560657,0.0001319290604442,0.0012612426653504,-0.4628813862800598,-0.1187464892864215,9.75653076171875
3.131967544555664,-0.000410814944189,0.0019449419341981,0.0004201717674732,-0.4667025804519653,-0.1196280568838107,9.739401817321776
3.1358535289764404,0.0009705163538455,0.0018383566057309,0.0004179649986326,-0.4652915298938751,-0.1253262609243381,9.739349365234377
3.1398513317108154,0.0003359464462846,-0.000492573948577,-0.001716427039355,-0.4566971957683563,-0.1020796298980701,9.771808624267578
3.1438443660736084,-0.0001993046607822,-0.0009272126480937,8.016638457775127e-05,-0.4619531035423279,-0.1131776198744761,9.793128967285156
3.14784836769104,-0.0010479280026629,-0.0006070961244404,0.000734020024538,-0.4481799602508545,-0.1116798892617213,9.7742919921875
3.151843547821045,0.0008672963595017,-0.0014580893330276,-0.000870797317475,-0.4471330344676971,-0.1135635673999774,9.779881477355955
3.15596342086792,1.5511526726186275e-05,0.0014164668973535,-0.0009658150374889,-0.4547836184501648,-0.1107224971055972,9.77984619140625
3.1678454875946045,1.5047378838062286e-05,-7.199333049356947e-05,-0.0007596276700496,-0.4547849297523498,-0.1054231002926814,9.7737398147583
3.171966552734375,1.2831529602408407e-05,0.0011974616209045,0.0013763285242021,-0.4643648862838745,-0.1083032786846149,9.776580810546877
3.1798574924468994,-0.0013663683785125,0.0013120645890012,-0.0006458982825279,-0.4701317846775055,-0.1241872906684863,9.79930591583252
3.183851480484009,0.0003264144761487,-0.0006086770445108,0.0007306761108338,-0.4720094203948974,-0.1260377168655383,9.78551197052002
3.1878416538238525,0.0014000152004882,-0.0014559179544448,-0.0004437188617885,-0.4686667919158935,-0.1326784342527377,9.771708488464355
3.191854476928711,-0.0002079487312585,-0.0006183530203998,0.0005062692798674,-0.4638745784759521,-0.1170507743954646,9.790226936340332
3.195904493331909,-0.0007304590544663,0.001310663181357,-0.000541397370398,-0.4701429009437561,-0.1199103370308864,9.80501937866211
3.1998543739318848,0.0007642193231731,0.0006775909569114,-0.0023544433061033,-0.4710885286331177,-0.1117130145430553,9.791783332824709
3.203852415084839,0.0004411932313814,0.0018485902110114,-0.0014963462017476,-0.451467216014862,-0.1198009923100459,9.779403686523438
3.2078404426574707,-0.0001965699484571,0.0009935311973094,-0.0009671095758676,-0.4352291226387024,-0.1183573231101024,9.784653663635254
3.211928367614746,-0.0007277050754055,0.0004618649836629,-0.0013967799022793,-0.4615413248538971,-0.1112588122487056,9.794638633728027
3.215900421142578,-0.0003045735647901,0.0004625879228115,-0.00065254047513,-0.4720363914966583,-0.1122040972113597,9.791729927062988
3.219850540161133,0.0008586236508563,0.000243172282353,0.0010451632551848,-0.4677414298057556,-0.1160535588860499,9.796472549438477
3.2238423824310303,0.0020425142720341,-0.0013486247044056,-0.0012956145219504,-0.4644112586975097,-0.1304425746202457,9.806920051574709
3.227842330932617,0.000445011886768,-0.0001848258543759,0.0010243742726743,-0.4691433608531952,-0.1289373338222491,9.800104141235352
3.2318499088287354,0.0021413646172732,-0.0006133613642305,0.0011582169681787,-0.464434802532196,-0.1151657775044429,9.810301780700684
3.2358410358428955,0.0003351486520841,-0.0008161638397723,-0.0008686673827469,-0.465345948934555,-0.1117334291338908,9.795116424560549
3.2398488521575928,0.0017095627263188,0.0003593286965042,-0.0028706372249871,-0.4615355134010315,-0.1140635684132564,9.777586936950684
3.243839979171753,-8.88557406142354e-05,-0.0010272511281073,-0.0011929888278245,-0.4580877721309662,-0.1095809340476977,9.741450309753418
3.2479379177093506,-0.0007295996183529,-7.133698090910921e-05,-0.0007614255882799,-0.4585928618907928,-0.1015186905860889,9.757173538208008
3.2518372535705566,-0.0019031588453799,0.0009871928486973,0.0005199993029236,-0.4452415108680725,-0.0983264148235309,9.789998054504396
3.2559590339660645,-0.0009430840145796,-0.0006010779179632,-0.0010838923044502,-0.4519698023796081,-0.1012815907597529,9.811812400817873
3.2599709033966064,-0.001157559454441,0.0004573795013129,0.00030561350286,-0.4725309014320373,-0.1103135198354709,9.795098304748535
3.263885021209717,-0.0011562594445422,0.00088543118909,-0.0001221066340804,-0.4547984004020691,-0.1098091825842845,9.796103477478027
3.2678399085998535,-0.0010493743466213,0.0022707008756697,-0.0010667243041098,-0.4710918962955475,-0.1131718307733523,9.793190956115724
3.2718420028686523,-0.0021148279774934,0.0018480513244867,-0.0007582898251712,-0.4720602929592132,-0.1198872625827777,9.797442436218262
3.2766518592834473,-0.0026107702869921,0.0013367722276598,-7.737148553133027e-05,-0.4527731239795685,-0.1065296977758395,9.79496955871582
3.2846920490264893,0.0012908955104649,0.0022554378956556,0.0023437803611159,-0.4514651298522949,-0.1137262508273112,9.805583000183104
3.288641929626465,0.0021417036186903,0.0025868748780339,-0.0001073544844985,-0.4543314576148987,-0.112156771123408,9.782333374023438
3.293454647064209,-0.0009210524149239,0.0012564669596031,-7.967557758092895e-05,-0.4697748720645904,-0.1087728217244136,9.776311874389648
3.29744291305542,0.0007599310483783,0.0007718275301158,0.0005269311368465,-0.4749532341957092,-0.1084033027291285,9.80412769317627
3.305443048477173,-9.61492769420147e-05,0.0008843482937663,-0.0002247095108032,-0.4620336294174194,-0.1194275468587863,9.809822082519531
3.309443950653076,-0.0008350656135007,0.0014180077705532,-0.0009672539308667,-0.4715837240219116,-0.0997832939028728,9.797576904296877
3.313477039337158,0.0016092906007543,-0.0008201012387871,0.0003021825104951,-0.4772895574569702,-0.1231131628155696,9.778471946716309
3.3175058364868164,0.0002388878492638,0.0015248149866238,0.0010511185973882,-0.4757846295833587,-0.1287042349576938,9.77842140197754
3.3214588165283203,0.001823439495638,0.0014082791749387,-0.0004337970167398,-0.4739400744438171,-0.1076950058341014,9.759455680847168
3.325453996658325,0.001716892234981,0.0006672271993011,0.000630497932434,-0.4753763675689697,-0.1121531054377543,9.779470443725586
3.3294498920440674,-0.001689426600933,0.0004486313555389,0.0003049653023481,-0.48159059882164,-0.101066283881663,9.763412475585938
3.3342604637145996,0.0004052881849929,0.0010721294675022,0.0014272821135818,-0.4681870341300964,-0.1023865193128573,9.770838737487791
3.3382434844970703,0.0008651599055156,-0.0002898073289543,9.211665019392973e-05,-0.465292751789093,-0.1111341565847384,9.765217781066896
3.3422484397888184,-0.0006256353808566,-0.0010322914458811,8.572451770305646e-05,-0.4806670844554901,-0.1131595298647868,9.79372501373291
3.3462555408477783,-0.0004083340172655,0.0009970881510525,-0.0019275457598268,-0.4701333940029144,-0.1117195114493358,9.7927885055542
3.3502414226531982,0.0012881595175713,0.0010971629526466,-0.0001147864386439,-0.4711393117904663,-0.1156577840447413,9.817447662353516
3.354248523712158,0.0010835344437509,-0.0011410994920879,-0.0003343606367707,-0.4600845277309418,-0.1036174818873393,9.793347358703612
3.358389377593994,-0.0016924435039982,-0.0015542262699455,0.000933819450438,-0.4667685031890869,-0.1049386411905276,9.781883239746094
3.36626935005188,0.000864669913426,-0.0014638090506196,-1.9066035747527897e-05,-0.4586709141731262,-0.1226311251521098,9.776630401611328
3.370237350463867,-0.0002024639397859,-0.0036976453848183,0.0010347790084779,-0.4576829969882965,-0.1198332235217082,9.787086486816406
3.374258518218994,-0.001157839782536,-0.0002931938506662,0.0011531384661793,-0.4629876315593719,-0.115607291460036,9.80704402923584
3.378246545791626,0.0009732581675052,-0.0011355434544384,-0.0001233294606208,-0.4639790058135986,-0.1070935502648341,9.83322525024414
3.386263370513916,-0.0005264208302833,0.0012201073113828,-0.0017310800030827,-0.4670605063438415,-0.1078858897089946,9.80278778076172
3.3902664184570312,-0.0022270265035331,-0.0005900363903492,-0.0012143081985414,-0.4737290740013122,-0.1216829717159259,9.78706169128418
3.3982443809509277,-0.0013743648305535,-0.00113110919483,0.0007052063010632,-0.4631456434726715,-0.1102429181337344,9.79271125793457
3.4062695503234863,-0.0011668828083202,-0.0005980134010314,0.0007131621241569,-0.4501685202121734,-0.113521523773669,9.77080535888672
3.4102375507354736,-0.002125178463757,0.0002367431297898,0.0028435471467673,-0.4545046389102936,-0.1192076727747905,9.760857582092283
3.414308547973633,-0.0005318284383974,0.0016205242136493,0.0025294334627687,-0.4559708535671234,-0.1168748438358295,9.777944564819336
3.4182424545288086,0.0027792539913207,0.0019493516301736,0.0011566919274628,-0.4502288401126861,-0.1231541186571109,9.788385391235352
3.422236442565918,0.0015042258892208,-0.0002653985284268,-0.0022657406516373,-0.457876443862915,-0.1188763305544841,9.798848152160645
3.4262535572052,0.0019250481855124,-0.0004892251454293,-0.0003489265218377,-0.462208092212677,-0.1155848577618586,9.81072998046875
3.4342479705810547,0.0005429721204563,0.0011079104151576,-0.0006629358977079,-0.4708260595798492,-0.1189453303813922,9.813554763793944
3.439067840576172,0.0004892603028565,0.0009950236417353,0.0002646218053996,-0.4655615389347076,-0.1168190166354167,9.797950744628906
3.447044849395752,0.0003223792882636,-0.0008153859525918,0.0011479393579065,-0.4635509550571441,-0.1183844357728946,9.78970432281494
3.4551608562469482,-0.0004119082586839,0.0015281493542715,0.000300440005958,-0.453494518995285,-0.1203169897198665,9.79448127746582
3.45904803276062,0.0003377256216481,-0.0008132567163556,0.0011446913704276,-0.4458893835544586,-0.1295060515403735,9.816766738891602
3.4630372524261475,-0.0011638536816462,-0.0018838266842067,0.0006057508289813,-0.4559233784675598,-0.1165893971920001,9.8110990524292
3.4710500240325928,0.002140830270946,-0.0002773883752524,-0.00097963726148,-0.470308244228363,-0.1194372773170459,9.819585800170898
3.475052833557129,0.0007574927294626,-6.51851296424866e-05,-0.000238066073507,-0.4664468765258789,-0.1337427049875247,9.80535888671875
3.479198932647705,-0.0005257597076706,-0.0003960009198635,0.001887755934149,-0.4587608575820923,-0.1269804090261447,9.797283172607422
3.483048915863037,-0.0012682127999141,-0.001033762935549,0.0015646084211766,-0.4750286936759949,-0.1068480461835849,9.776907920837402
3.4870519638061523,-0.0005230996175669,2.9219314455986267e-05,0.0019987300038337,-0.4788672626018524,-0.1059618592262256,9.794495582580566
3.4950368404388428,0.0003312303451821,-0.0025154447648674,-3.369711339473694e-05,-0.4812698662281036,-0.1232180595397937,9.803451538085938
3.5030598640441895,-0.0005233157426118,0.0003525954671204,0.0011481191031634,-0.4621289372444153,-0.1284666359424579,9.79823875427246
3.511037826538086,-0.0005209879600442,-0.0001780027523636,0.0006132964044809,-0.4544697105884552,-0.0997625887393939,9.797891616821287
3.5151009559631348,0.0003304061247035,-0.0019823245238512,-0.000351779628545,-0.4625814855098724,-0.1106936708092677,9.7816801071167
3.523041248321533,-0.0012651939177885,-0.0028331249486654,-0.0004636673256754,-0.4702530205249786,-0.1069281026720988,9.796894073486328
3.5270519256591797,-0.0004052130971103,-0.0005146744661033,-0.001409821677953,-0.4782864153385162,-0.0896505340933787,9.790312767028809
3.531045913696289,-0.0012637028703466,-6.037391722202316e-05,-0.0012023104354739,-0.4822613596916199,-0.106964588165282,9.81204891204834
3.535059928894043,0.0001177859958261,-0.0008107798639684,-0.0003463672474026,-0.4679011702537536,-0.1108553707599627,9.81733226776123
3.539062023162842,-0.0005203644977882,-0.0011346247047185,0.0005046399310231,-0.4640351235866546,-0.1107956320047366,9.806361198425291
3.5430538654327393,0.000753729022108,-0.0005079444963484,0.0025356160476803,-0.4658946990966797,-0.1141209080815303,9.79488468170166
3.5470519065856934,0.0007523695239797,-0.0002992248628288,0.0033867564052343,-0.4697532951831817,-0.1270950138568866,9.81190299987793
3.551062822341919,-9.771576151251792e-05,0.0008750183042138,0.00318289315328,-0.4635139107704162,-0.1313899457454669,9.808565139770508
3.555156946182251,-0.0009438180131837,0.0007778585422784,-0.0006645857356488,-0.4697328209877014,-0.1261500865221011,9.807632446289062
3.559058904647827,-0.0007332920213229,0.0009980024769902,-0.0010748784989118,-0.4563381373882293,-0.1203230917453754,9.801005363464355
3.567049980163574,0.0006507494254037,0.0013171881437301,-0.0012854882515966,-0.470735102891922,-0.1157114952802646,9.829527854919434
3.571039915084839,-0.0006215458852238,-0.0011285259388387,-0.0016215583309531,-0.4702377319335937,-0.1156219542026507,9.812925338745115
3.5751760005950928,-0.0005178743158467,-0.0006021172739565,8.602114394307143e-05,-0.4567937850952148,-0.1208129525184619,9.797706604003906
3.579073905944824,0.0028848238289356,-0.0012467009946703,0.0014684973284602,-0.4668453335762024,-0.1246837675571429,9.809532165527344
3.5830488204956055,0.0010730769718065,-0.0004009273834526,0.0019015171565115,-0.4644472897052765,-0.119809992611407,9.783483505249023
3.587052822113037,-0.0007446353556588,0.0007758759893476,0.0018049087375402,-0.4764184057712555,-0.1106438413262355,9.776796340942385
3.5910606384277344,0.0015023881569504,-7.485575042664993e-05,0.0009420830756425,-0.4702198505401611,-0.1208855807781207,9.81285572052002
3.5950498580932617,-9.207217954099178e-05,-0.0009136074222624,-0.0006466922350227,-0.459273487329483,-0.1142839193344104,9.837576866149902
3.599057912826538,0.0005459018284454,-0.0017631063237786,-0.0024768740404397,-0.4587443470954895,-0.123327165842055,9.822935104370115
3.6030569076538086,0.0005570742068812,-0.0020975270308554,-0.0032296918798238,-0.4525359272956848,-0.1356453299522388,9.80431079864502
3.6070480346679688,0.0004383362829685,0.0008835189510136,0.000411934684962,-0.4591679871082306,-0.122715353965758,9.791545867919922
3.611034631729126,-0.0003105592913925,0.001309537445195,0.0026447242125868,-0.4582855403423309,-0.1088900864124286,9.79581069946289
3.6158409118652344,-0.000575782964006,-0.0022935557644814,0.0015033264644443,-0.4471624791622162,-0.1037045419216144,9.80152702331543
3.6206369400024414,0.0009363876888528,-0.0004166956059634,-0.0018577012233436,-0.4459193646907806,-0.0992669463157641,9.794075012207031
3.628635883331299,-0.0003086847718805,0.0006675105541944,0.0014763954095542,-0.459705114364624,-0.1098965778946864,9.815835952758787
3.6328234672546387,0.0004339476581662,0.0004649322945624,0.0003014313988387,-0.4568627476692199,-0.1319313943386066,9.835679054260254
3.640636444091797,0.0002293443540111,-0.0011379031930118,-0.000552462413907,-0.4587136507034302,-0.1122034862637507,9.80578327178955
3.644636392593384,0.0009571941336616,-0.000174406915903,-0.0014984062872827,-0.4472613334655761,-0.1136528104543674,9.790492057800291
3.652639627456665,-0.0001981725217774,0.0004675050731748,-0.0013969196006655,-0.4754447937011719,-0.11983424425125,9.789176940917969
3.6567764282226562,-0.0008377782069146,0.0007796422578394,0.0001966329291462,-0.460615873336792,-0.1318055540323245,9.793900489807127
3.6606523990631104,0.0015004818560555,0.0008834665641188,0.0009472277015447,-0.4572823941707611,-0.1131910532712924,9.801119804382324
3.664679527282715,7.266644388437271e-06,0.0003347683232277,0.0020089447498321,-0.4635584056377411,-0.1155928969383227,9.80061149597168
3.6686363220214844,-0.0008431483292952,-0.0014536229427903,0.0010349359363317,-0.4687423706054687,-0.1308651119470584,9.795819282531738
3.67665433883667,-0.0017982253339141,0.000779079971835,-0.0006594378501176,-0.4524813592433929,-0.107580706477164,9.830641746520996
3.6846423149108887,0.0020300408359616,-7.17784278094768e-05,0.0004104487597942,-0.4601328372955322,-0.1111957877874362,9.793049812316896
3.68868350982666,0.0002272026613354,0.000250358833,-0.0008715903386473,-0.4543716311454773,-0.1026224270462977,9.790276527404783
3.6927733421325684,3.0376948416233063e-05,0.0006785097066313,-0.0007522208616137,-0.4592893719673157,-0.1083090603351581,9.781257629394531
3.6966583728790283,-0.0003071674145758,-5.665887147188223e-05,-0.0029949711170047,-0.4673634469509125,-0.1092800125479686,9.795032501220703
3.700636386871338,-0.0024282108061015,-6.848387420177464e-05,-0.0003354204818606,-0.4711544811725616,-0.1241104528307902,9.785871505737305
3.704643487930298,-0.0012648320989683,-6.0411868616938855e-05,-0.002148391213268,-0.456749677658081,-0.1097050309181201,9.772201538085938
3.7087554931640625,-0.0004126657731831,-0.001134872669354,-2.2047664970159392e-05,-0.4610664844512939,-0.1230766922235477,9.769278526306152
3.712698459625244,-0.0006255595944821,-0.0007058100309222,-0.0004459070041775,-0.4567507803440094,-0.1230784505605685,9.768340110778809
3.717442512512207,-0.0013700880808755,0.000730188563466,-0.0007005841471254,-0.4658063352108001,-0.1207853183150279,9.786752700805664
3.721442461013794,-0.0006233801250346,-0.0012446581386029,-0.0005467259325087,-0.4639349579811096,-0.1199129149317729,9.80141830444336
3.726252317428589,-0.0008413542527705,-0.0008552076760679,-0.0008190511725842,-0.4677107632160187,-0.1069361492991435,9.823699951171877
3.7302353382110596,-9.462086018174888e-05,-0.0011193638201802,-0.0012079235166311,-0.4708861708641052,-0.1103097945451724,9.81292724609375
3.7342569828033447,-0.0010515479370951,-0.0007975883781909,-0.0019544973038136,-0.4651435613632202,-0.1084088608622538,9.813864707946776
3.7382359504699707,-0.0009470918448641,0.0010086130350828,-0.0006686728447675,-0.4641677141189575,-0.1040522083640086,9.802977561950684
3.74224591255188,-0.0004182594129815,-0.001447619870305,0.0005982471629977,-0.4694337248802185,-0.1212971135973918,9.805744171142578
3.7502546310424805,-0.0001999508822336,0.0002620394807308,-0.0007785144262015,-0.4723068475723266,-0.0997986793518054,9.811054229736328
3.7544867992401123,-0.0001088430872187,0.0030126813799142,-1.821015030145682e-05,-0.4511899948120117,-0.1285595297813403,9.79661464691162
3.7582452297210693,-0.0014836699701845,0.0019704119767993,0.0009352243505418,-0.45087930560112,-0.1436338126659381,9.794032096862791
3.7622480392456055,-0.0010521850781515,-0.0018776194192469,0.000489370431751,-0.4550805687904358,-0.1294215917587268,9.806669235229492
3.7670469284057617,-4.347972571849823e-05,0.0002978825941681,-0.0006340942345559,-0.4493118822574615,-0.1215485632419574,9.79198932647705
3.77103590965271,0.0011860646773129,-0.0002711780834943,-0.0012010587379336,-0.4526877105236053,-0.1184183210134494,9.806238174438477
3.775061845779419,0.0006451536901295,-0.0014482582919299,0.0009195925667881,-0.4627303779125213,-0.1141199544072139,9.807190895080566
3.7790520191192627,-0.0024440723937004,4.377774894237522e-05,0.0002890122123062,-0.469515711069107,-0.111427269876002,9.847090721130373
3.7830560207366943,-0.0002048448659479,0.0016381290042772,0.0006132358685135,-0.4661502838134765,-0.1114484295248973,9.849477767944336
3.7870500087738037,0.0017052787588909,0.0010036583989858,-0.0001303269527852,-0.4819118976593017,-0.1319737881422031,9.841331481933594
3.7910566329956055,0.0034164290409535,0.00154054898303,-0.0014022481627762,-0.4694524705410003,-0.1213595271110522,9.819986343383787
3.7950758934020996,-0.0001013719011098,0.0006763688288629,0.0016706036403775,-0.4588602781295776,-0.0991629064083087,9.778285026550291
3.7990572452545166,-0.0008368238923139,0.0010966402478516,0.0009314422495663,-0.4597931206226349,-0.0972451269626605,9.78158187866211
3.803057909011841,-0.0027588333468884,0.0015352240297943,0.0001843515783548,-0.4655895233154297,-0.1150358244776713,9.799583435058594
3.8070478439331055,0.0004303412279114,0.0004761691670864,-0.0002376656047999,-0.453687846660614,-0.1213382631540286,9.816676139831545
3.811048984527588,-9.583565406501292e-05,0.000686781713739,-0.0004553385078907,-0.4541020393371582,-0.12223583459854,9.801493644714355
3.81522798538208,0.0001163494307547,0.0014337656321004,-0.0009824046865105,-0.4646239876747131,-0.101630739867686,9.793972969055176
3.8190698623657227,-0.0014836275950074,0.0006837837863713,0.0003997813910245,-0.4612987637519836,-0.1093958467245089,9.820515632629396
3.823051929473877,-0.0005169147043488,-0.0006906550843268,-0.0017349910922348,-0.4683503806591034,-0.1116792559623706,9.799505233764648
3.8270466327667236,0.000861526466906,-0.0003849270287901,-0.0002407128922641,-0.4860653579235077,-0.1260192543268191,9.786582946777344
3.831056833267212,0.0005464282585307,-0.0001711025834083,-0.0005494579672813,-0.4783650040626526,-0.1121805086731898,9.794099807739258
3.8350367546081543,0.0010806625941768,0.0009018299169838,-0.0023529555182904,-0.4802855849266052,-0.1059494689106929,9.79128646850586
3.8390586376190186,0.0006540378089994,-0.0002790640573948,-0.0005542440339922,-0.473086953163147,-0.1112036556005466,9.79126262664795
3.843050718307495,-0.0003176233149133,0.0015358905075117,-0.0004322342574596,-0.4754486382007599,-0.1078696101903903,9.780438423156738
3.847057580947876,-0.0001073604216799,-0.0016712595243006,0.0001864382065832,-0.4736619293689728,-0.1039763763546931,9.790449142456056
3.8510515689849854,-0.0004058578051626,0.0001485887914896,-0.0006584129296243,-0.4539792537689209,-0.1141007766127574,9.79983901977539
3.8590617179870605,0.0003368152538314,-0.0012327041476964,-0.0011942624114453,-0.4592245519161224,-0.1175539195537555,9.815496444702148
3.863046646118164,0.0002240024041384,-0.0006028106436133,0.0005106278695166,-0.4688582718372345,-0.1099660843610751,9.833571434020996
3.8678455352783203,0.0007594253402203,0.0002824137918651,-0.0012381570413708,-0.4540483951568603,-0.1085250154137599,9.81016445159912
3.871908664703369,-0.0003072161925956,-0.0009245115797966,0.0005156490951776,-0.4543855488300323,-0.1064504683017718,9.793587684631348
3.875844717025757,-0.0007301589939743,-0.0008148876950144,-0.0004454320296645,-0.4634788036346435,-0.1136543303728091,9.79825210571289
3.8798587322235107,0.001612851046957,-0.000379032222554,-0.0020321507472544,-0.4721110165119171,-0.0974318608641612,9.8031005859375
3.8838534355163574,0.0010784607147797,0.0022753863595426,-0.001384328585118,-0.4759065210819244,-0.1083593145012843,9.793067932128906
3.8878467082977295,-0.0024324608966708,0.000466275261715,-0.000864119734615,-0.4586793184280395,-0.0997047722339618,9.782691955566406
3.8958375453948975,-0.0010509457206353,-0.0003922351170331,0.0005156914703547,-0.4701838493347168,-0.1141465455293643,9.801616668701172
3.8998465538024902,-0.0010587074793875,0.0003647808916866,-0.0008570631034672,-0.4755033850669861,-0.1214782148599612,9.826268196105955
3.903848648071289,-0.0008346822578459,-0.0021950288210064,-0.0004504006356,-0.4668712913990021,-0.103233605623244,9.818778038024902
3.9078407287597656,-0.0014808259438723,-0.0004986964631825,-1.5928875654935776e-05,-0.465427815914154,-0.1127934604883181,9.82298755645752
3.911966562271118,0.0015046650078147,-0.0009200312197208,-0.0005463068373501,-0.4634690582752228,-0.1160197407007205,9.79259204864502
3.91585373878479,0.000654972391203,0.0005757932085543,-0.0013921880163252,-0.4596425592899322,-0.1079087331891048,9.799275398254396
3.919853448867798,0.0004380512982606,0.0015329691814258,-0.0012796698138117,-0.4567501544952392,-0.1078384220600116,9.784116744995115
3.923839569091797,0.0005498193204402,-0.0001684729941189,-0.0016097538173198,-0.475365936756134,-0.1039010733366,9.756051063537598
3.9318454265594482,0.0007604210404679,-0.0008104685693979,-0.0009722486138343,-0.4653721153736114,-0.0949398949742305,9.784607887268066
3.9358391761779785,-0.0001979761291295,-0.0001752309035509,-1.1714175343513468e-05,-0.4611264169216156,-0.1137141138315188,9.81631565093994
3.939852237701416,0.0024496833793818,-0.0015655972529202,0.002319258172065,-0.4658766388893127,-0.1128432750701892,9.823511123657228
3.9438390731811523,0.0015060048317536,-0.0006170852575451,0.0020121298730373,-0.4649601578712463,-0.0984543710947024,9.82163906097412
3.948634147644043,0.0022663488052785,0.0011733126593753,-0.0003396696411073,-0.4710761308670044,-0.1045879051089274,9.811920166015623
3.9534504413604736,4.974042531102896e-05,0.0012638963526114,0.0001001874916255,-0.4666641056537628,-0.1155728623270976,9.781784057617188
3.9615180492401123,-0.0004101644735783,-0.0010318832937628,0.0013623191043734,-0.4582618474960327,-0.107910022139548,9.80221176147461
3.9654524326324463,0.000761565985158,-0.0010272280778735,-0.0005479394458234,-0.4649394452571869,-0.1070039048790919,9.811640739440918
3.9734418392181396,-0.0010496780741959,-0.0009258985519409,-0.0001175939105451,-0.468198299407959,-0.1175017431378352,9.800529479980469
3.977450132369995,-0.0014752416172996,-0.0017818883061408,0.0011530327610671,-0.4744470119476318,-0.1127408221364009,9.805766105651855
3.9854531288146973,-0.0009426682954654,0.000888526905328,-0.0005317204631865,-0.4605565369129181,-0.110284239053725,9.800122261047363
3.9894511699676514,-0.0011528714094311,0.0008902414701879,-0.0012813224457204,-0.4629565179347992,-0.1399991065263736,9.802355766296388
3.9935312271118164,-0.001258501317352,-0.0004955588374286,-0.0010747974738478,-0.472017765045166,-0.1293780654668796,9.784331321716309
3.9975192546844482,-0.0003027258208021,-0.0011342847719788,-0.0007557710632681,-0.4844575822353363,-0.1064660623669612,9.79868221282959
4.001441240310669,0.0002298766048625,-0.0016648801974952,-0.0013968795537948,-0.4672690629959106,-0.1146859675645816,9.811490058898926
4.005442142486572,-0.000509068777319,0.0023795068264007,0.0002004369162023,-0.4481981098651886,-0.1160805970430362,9.80333137512207
4.009483098983765,0.000121554126963,-0.0003918332513421,-0.0002199006266891,-0.4543274939060211,-0.1127035915851581,9.79726791381836
4.013467073440552,0.0009726943681016,0.0021704193204641,-0.0015902263112366,-0.4571723341941833,-0.1179225817322719,9.787720680236816
4.017441034317017,0.0020454954355955,0.004399721045047,-0.0017947126179933,-0.4538882970809936,-0.1145616397261607,9.789215087890623
4.025442123413086,-0.0012585546355694,0.0001479482743889,-0.0018174387514591,-0.4595527648925781,-0.1278758645057666,9.767732620239258
4.033449649810791,0.0001210930058732,0.0012082452885806,-0.0008536549285054,-0.4705701172351837,-0.103510573506354,9.779229164123535
4.037442684173584,0.001612554071471,0.0001467096153646,-0.0011732862330973,-0.4572023749351501,-0.0969293192028987,9.801583290100098
4.045442581176758,-0.0003026776248589,-6.985082291066656e-05,-0.0007501635700464,-0.4696560502052307,-0.1304273903369891,9.803348541259766
4.050240755081177,-0.0011044121347367,0.0004708846099674,-0.0006966940127313,-0.4678525030612945,-0.1098108142614352,9.818562507629396
4.0582356452941895,0.0014982802094891,-0.0002553248777985,-0.002588196657598,-0.4622044861316681,-0.1101951375603663,9.773475646972656
4.062242746353149,0.0005474757635965,-0.0014431434683501,-0.0012007933109998,-0.4731485843658447,-0.1073229536414134,9.781914710998535
4.066521644592285,-0.0022217235527932,-0.0010202396661043,7.46860168874265e-05,-0.4750513136386871,-0.1140631586313235,9.791399002075195
4.0742597579956055,-0.0014798250049352,0.0001444553490728,0.000719987321645,-0.4693703651428222,-0.1203675493597972,9.809422492980955
4.082247734069824,-0.0011595378164201,0.0004661381244659,0.0005083265714347,-0.4913615882396698,-0.097376614809035,9.80330753326416
4.090235710144043,0.00022820814047,-0.0029292271938174,-0.0018453504890203,-0.4774648249149322,-0.1107028201222407,9.787602424621582
4.094247579574585,-0.0005358103080652,-0.0018764422275125,-0.0013092989102005,-0.4731807708740234,-0.1153835654258716,9.764811515808104
4.098237752914429,0.001396351144649,-0.0015463342424482,-0.0015181815251708,-0.4559016525745392,-0.1048427894711482,9.758652687072754
4.1062586307525635,0.0011791825527325,-0.0011360717471688,0.0008233007974922,-0.465942770242691,-0.0962796285748469,9.76913070678711
4.114280700683594,-0.0008426883723586,0.0006906557828187,-0.0012988494709134,-0.4593234062194824,-0.1074304729700076,9.79714298248291
4.118247747421265,0.0016159240622073,-5.881930701434628e-05,-0.0012987814843654,-0.4415611624717712,-0.1073934584856021,9.79190444946289
4.122234582901001,-0.0013516823528334,0.0014056286308914,0.001236705109477,-0.459698736667633,-0.0988861024379718,9.79616928100586
4.13025164604187,-0.0027558174915611,0.0006779145915061,0.0005077174864709,-0.4703019261360168,-0.1083584278821933,9.798038482666016
4.134248971939087,-0.0007291976944543,-0.0010126770939677,-0.0017321477644145,-0.4745964407920837,-0.1236186176538455,9.790353775024414
4.1382458209991455,0.0011886042775586,0.0016536674229428,-0.0027855343651026,-0.476034015417099,-0.1102554500102984,9.794672012329102
4.142232894897461,0.0012825446901842,-0.000703073805198,-2.318620681762687e-05,-0.4754996597766876,-0.1139125674962985,9.79677677154541
4.146255970001221,0.0005437353393062,-0.0001771680545061,0.00104246661067,-0.4750760793685913,-0.1241147965192782,9.78986358642578
4.154244899749756,-0.0006289065931923,0.0016266108723357,0.0024365200661122,-0.454060822725296,-0.1108694970607745,9.822272300720217
4.158358812332153,0.0011829438153654,-0.0008147917687892,0.0004081702791154,-0.4611943662166595,-0.1070464774966227,9.824047088623049
4.174257755279541,-0.000412851863075,-0.0013467750977724,0.0004031397402286,-0.4654386043548584,-0.1131221130490291,9.790276527404783
4.1782708168029785,-0.0008394438773393,-0.0018845323938876,0.0010401001200079,-0.4658891856670379,-0.1211886033415782,9.775514602661133
4.182252645492554,-0.0019028638489544,-0.0015517843421548,-0.0008810320869088,-0.4635175466537475,-0.1250637471675861,9.785503387451172
4.18625283241272,-0.0006220394279807,0.0002588683273643,-0.0018259054049849,-0.4682960212230682,-0.1107064038515079,9.784574508666992
4.190238952636719,-0.0013708171900361,0.0013046161038801,0.0005132528021931,-0.4687618017196655,-0.0935511142015445,9.798327445983888
4.194243907928467,0.0001223396975547,-0.0003741874825209,-0.0023566482122987,-0.4587904512882232,-0.1022202819585788,9.813606262207031
4.19823694229126,-0.0002868379233404,-0.0007989071309566,-0.0001258989796042,-0.4644801616668701,-0.1111942678689944,9.805811882019045
4.206263780593872,-0.0004142108373343,0.0016332054510712,0.000307694543153,-0.4458092153072357,-0.0996979773044574,9.785146713256836
4.214249849319458,-0.001811645226553,-0.0018043797463178,3.0724331736566847e-06,-0.4668595790863037,-0.1148670241236674,9.771458625793455
4.218260765075684,0.0010763510363176,-0.0010275095701217,0.0006204484961926,-0.466383546590805,-0.1107021644711482,9.784092903137209
4.222237825393677,0.000653514987789,-0.001020107185468,-0.001079611480236,-0.4706354737281799,-0.1106010675430285,9.761296272277832
4.226255893707275,1.4788354746997356e-05,-0.0001585746649652,-0.0007782806642353,-0.4653345346450805,-0.1211929172277438,9.775971412658691
4.2342448234558105,0.0003303269622847,-0.0012403649743646,0.000511709600687,-0.4769344329833984,-0.1212692186236369,9.794448852539062
4.242231845855713,-9.418989066034555e-05,-0.0006006185431033,0.0004079123027622,-0.4798152148723602,-0.1246439293026912,9.79874038696289
4.246252775192261,0.0007577588548883,-0.001134589780122,0.0006169802509248,-0.4635232388973236,-0.111222982406615,9.786465644836426
4.2542479038238525,-0.0013720268616452,0.0004669199697673,0.0014746910892426,-0.4634818434715271,-0.121065445244311,9.764886856079102
4.258358955383301,-0.0006253315368667,0.0004655306693166,-0.0003364537842571,-0.4630874991416931,-0.1381257474422443,9.818154335021973
4.262232780456543,1.3732817023992538e-05,3.937911242246628e-05,-1.284806057810784e-05,-0.4697936475276947,-0.1280652433633792,9.815801620483398
4.2664008140563965,-0.000300736632198,0.0001503971870988,-0.0010782061144709,-0.4644947946071625,-0.1180075481533992,9.807831764221191
4.27425479888916,-0.0012611616402864,0.0004639984108507,0.0003037168644368,-0.4798791110515594,-0.1099837869405734,9.84010410308838
4.282236814498901,-0.0008315895684063,-0.0006027680356055,-0.00043949438259,-0.4634574651718139,-0.1168691366910922,9.777448654174805
4.286259889602661,0.0011769775301218,0.0008892414625734,9.3370210379362e-05,-0.4682754874229431,-0.1230609640479075,9.770672798156738
4.294244050979614,-0.0022211407776921,-0.0001683959271758,-0.0003351080231368,-0.4611532390117645,-0.1017177477478969,9.806843757629396
4.2982337474823,-0.0010545733384788,0.0001471273135393,-0.0012885993346571,-0.4583412408828735,-0.1070602759718882,9.829689025878906
4.306246042251587,-0.0022215242497622,0.0001444341614842,0.0005133799277245,-0.4486875534057617,-0.1174569800496089,9.799250602722168
4.314244031906128,-0.0003046598285436,0.0009980427566915,-0.0002229665406048,-0.4491632878780365,-0.0987647473812091,9.78791618347168
4.318251848220825,-0.0008394520264118,0.0004666596651077,-0.0001210793852806,-0.4754418730735779,-0.1144624203443515,9.772150993347168
4.322265863418579,8.868635632097721e-06,-7.089180871844281e-05,0.0008332980796694,-0.4831076264381408,-0.1110415011644351,9.756932258605955
4.3262457847595215,0.0010935044847428,-0.0008099626284092,-0.001192876137793,-0.4686589241027832,-0.1073671281337726,9.777003288269045
4.334262371063232,-9.613565634936094e-05,0.0012013457017019,0.0020126430317759,-0.4602093696594238,-0.1227988824248301,9.814382553100586
4.338252305984497,0.0003327243030071,0.0020603300072252,0.0002078944817185,-0.465984433889389,-0.1256324052810657,9.819169998168944
4.342244386672974,-0.0016849905950948,0.0007912202272564,-0.0004366845823824,-0.4516106843948364,-0.1170926615595805,9.815390586853027
4.346259355545044,-0.0007341708405874,0.0001355612184852,0.0016847965307533,-0.4659186601638794,-0.1204325631260859,9.812962532043455
4.350246429443359,0.0019268804462626,0.0021624490618705,0.0009570610709488,-0.4654589593410492,-0.1069631054997432,9.802557945251465
4.354431629180908,0.0006504678167402,0.0019508465193212,0.0004167649894952,-0.4606379270553589,-0.1016077548265445,9.784507751464844
4.358246326446533,-0.0005235492135398,0.0011077381204813,-5.728565156459944e-06,-0.4553786218166351,-0.0987585857510554,9.785554885864258
4.362362384796143,0.0006563676288351,0.0002485415898263,0.0004139803349971,-0.4586749374866485,-0.1183332577347743,9.767799377441406
4.366247653961182,-0.0001991771860048,-0.0004952298477292,0.0006226459518074,-0.4438772201538086,-0.13359898328781,9.769680976867676
4.374258518218994,-0.0011604728642851,2.799369394779213e-05,0.0006244485266506,-0.4678657650947571,-0.1243002638220775,9.838443756103516
4.378260374069214,-0.0009432289516553,0.0012092145625501,0.0006287125870585,-0.4860739409923553,-0.1161688640713679,9.828579902648926
4.38223934173584,0.0006573884747922,0.0005857436917722,-0.0026766937226057,-0.4697514474391937,-0.1132566779851901,9.82628059387207
4.390248537063599,-0.0005167398485355,-0.000919216312468,8.821487426757823e-05,-0.4769496619701385,-0.1194235831499087,9.808634757995604
4.394247531890869,0.000113739282824,0.0004744953475892,0.000734026543796,-0.474176824092865,-0.1193631738424289,9.788779258728027
4.3982343673706055,0.0003306502476334,-0.0011392820160835,0.0011528180912137,-0.4544041454792022,-0.1202398911118495,9.774478912353516
4.402234315872192,1.627556048333645e-05,0.0012140392791479,-0.0003260965459048,-0.4634899199008941,-0.1116087660193431,9.772589683532717
4.406248331069946,-9.552936535328628e-05,-0.0008168963249772,-1.5196390450000665e-05,-0.4520647823810577,-0.1083472818136203,9.786859512329102
4.410243511199951,0.0004409251268953,0.0014255867572501,-0.0007507102563977,-0.4477510452270508,-0.0868891477584826,9.804075241088867
4.414246320724487,-0.0001974464394152,0.0002531909849494,0.0003057760186493,-0.4573372006416321,-0.097023397684096,9.825385093688965
4.422248363494873,0.0007597596850246,-0.001879891147837,-0.0001272778026759,-0.4525569975376129,-0.1189527958631503,9.813894271850586
4.4262473583221436,0.0017168142367154,-0.0008131030481308,0.0003055012784898,-0.4559190273284912,-0.1104096919298159,9.823895454406738
4.434248447418213,0.001397916697897,-6.090151146054285e-05,-0.0013930588029325,-0.4462896883487701,-0.1092725843191134,9.780712127685549
4.442235469818115,-0.0005173648241907,-0.0012385323643684,8.734455332160011e-05,-0.4496740400791168,-0.1170407459139811,9.810091972351074
4.450237512588501,0.0007601135876029,0.0009969188831746,9.931158274412144e-05,-0.4505726993083954,-0.1247493699192988,9.809988975524902
4.458366394042969,-0.0021093799732625,-0.0003814580850303,-0.001402479596436,-0.4520647525787353,-0.1227817460894572,9.807683944702148
4.462236404418945,-0.0010529493447393,0.0011091772466897,-5.005393177271025e-06,-0.4592589139938354,-0.1131762266159045,9.80107593536377
4.467050552368164,-0.0001245882594957,-0.000332003692165,-0.0009718379005789,-0.447239875793457,-0.1073422729969012,9.80817985534668
4.471050500869751,0.0001239734701812,-0.0004855298902839,-0.0013972409069538,-0.4578126072883606,-0.1050826385617244,9.810585975646973
4.47506046295166,-8.767505642026663e-05,-0.0009142002090811,-0.0010811169631779,-0.4668576419353485,-0.113602705299853,9.791552543640137
4.479114532470703,-0.0001973283942788,-0.000905176391825,-2.06264667212962e-05,-0.4707329869270324,-0.1293881237506854,9.80376148223877
4.487072467803955,0.0009714518673717,0.0015217582695186,0.0014852709136903,-0.4807589650154114,-0.1298813223838794,9.79425811767578
4.491044521331787,-0.0021102747414261,0.0032301980536431,0.0013948692940175,-0.4659886658191681,-0.1222830340266215,9.80146312713623
4.495035648345947,-9.080837480723858e-05,0.0015290873125195,-0.0001105112023651,-0.4573281705379486,-0.1232347860932338,9.80620288848877
4.503047466278076,0.000436991569586,-0.0003960118629038,0.0023280750028789,-0.4596580862998962,-0.1264307945966708,9.770574569702148
4.507044553756714,-0.0003984143259003,-0.00028119655326,0.0006305910646915,-0.4630140662193298,-0.1220499873161304,9.764944076538086
4.511052370071411,-0.000410262204241,-0.0003864951431751,9.21399332582951e-05,-0.4725837707519531,-0.1316897124052035,9.7691068649292
4.515157461166382,-0.0006210040301084,-0.0001661407295614,-0.0010789297521114,-0.4654165804386139,-0.1168976277112948,9.783909797668455
4.519059419631958,0.0007643566932529,0.0006827018223702,-0.0003226418048143,-0.4558548033237457,-0.1159934625029552,9.784416198730469
4.5230393409729,-0.0016889468533918,0.0017399825155735,0.000845456495881,-0.4409839510917663,-0.1144834235310542,9.772530555725098
4.527053356170654,-0.00200623460114,0.0002521413844078,0.0003062835894525,-0.4491520226001739,-0.1149862110614764,9.77776336669922
4.531036376953125,-0.0004096338525414,-0.0004962540697306,0.0004123370163142,-0.4673663973808288,-0.1155276745557773,9.792926788330078
4.535049200057983,0.0002210071543231,0.0006711352616548,0.0002981042489409,-0.4692284166812897,-0.1281117796897876,9.805708885192873
4.5390472412109375,0.0012914550025016,-0.0014446256682276,-1.369183883070928e-05,-0.4573659896850586,-0.114219397306441,9.823291778564451
4.543062448501587,2.2245803847908974e-05,-0.0001719947904348,-0.0019241427071392,-0.4497219026088714,-0.1247166171669948,9.816283226013184
4.5470592975616455,-0.0003029092913493,0.0003621466457843,-0.00064965384081,-0.4572855234146118,-0.1355819851160037,9.785243034362791
4.551169157028198,-0.000942921207752,0.0017374905291944,0.0009518512524664,-0.4611043930053711,-0.1202676668763148,9.78580379486084
4.555155038833618,0.0015076893614605,-0.0007022710051387,-0.000653370283544,-0.4400270879268646,-0.1136128678917872,9.790095329284668
4.559048175811768,0.0009749149903655,-0.0011286903172731,-0.0004398729652166,-0.461117148399353,-0.1088080108165729,9.788662910461426
4.563207149505615,-0.001044729957357,-0.0009169578552246,-0.0002336059696972,-0.4645073115825653,-0.1146460101008403,9.802358627319336
4.567054271697998,0.0016130779404193,-0.0002745909150689,-0.0008609681390225,-0.4467970430850982,-0.112704128026961,9.803388595581056
4.571048259735107,0.0004493409069254,0.0016268229810521,-0.0003187507390975,-0.4490955173969269,-0.1156650334596621,9.815255165100098
4.575057029724121,-0.0017941660480573,-6.849551573395732e-05,-0.0002193772234022,-0.4902367293834686,-0.1059772446751582,9.790420532226562
4.579064130783081,-0.0011549809714779,-0.0009273216128349,-0.0009692632593214,-0.4702258110046386,-0.108315549790858,9.787075996398926
4.583040237426758,0.001397424028255,0.0005824179388582,-0.001384446863085,-0.4581792950630188,-0.1269874125719058,9.791319847106934
4.5870561599731445,0.0007690574275329,0.0005773580633103,-0.001170820556581,-0.4524710178375244,-0.1079094260931003,9.79519271850586
4.59105110168457,-0.0011858940124511,-0.0006242238450795,0.0004921448417007,-0.4546383619308471,-0.1102091073989856,9.774556159973145
4.595036268234253,0.0007634850917384,0.0012100179446861,-0.000530641991645,-0.4663152992725372,-0.1140705347061145,9.785149574279783
4.5990540981292725,0.0005496878875419,0.0008026666473597,0.0010680202394723,-0.4830303192138672,-0.1195504888892161,9.802987098693848
4.603047132492065,0.0006556721637025,-0.0016623896081,-0.000332374125719,-0.479780912399292,-0.1156792119145381,9.824557304382324
4.6070451736450195,0.0012919199652969,-0.0007106787525117,9.87737439572812e-05,-0.4769130945205688,-0.1185899674892413,9.833122253417969
4.611049175262451,-0.001685271738097,0.0001472213771194,-0.0007518716156482,-0.4596981406211853,-0.1200322806835162,9.834084510803224
