timestamp,angular_velocity.x,angular_velocity.y,angular_velocity.z,linear_acceleration.x,linear_acceleration.y,linear_acceleration.z
0.0,9.72897032625042e-06,0.0017187398625537,0.0034745170269161,0.2929754555225372,-9.698646545410156,0.0154972374439239
0.005010366439819336,-0.0017356002936139,0.0017187398625537,-1.6141464584507048e-05,0.2926187515258789,-9.719361305236816,-0.0048980116844177
0.010020256042480469,9.72897032625042e-06,0.0017187398625537,-1.6141464584507048e-05,0.2925665080547333,-9.75861358642578,0.0142982006072998
0.015030384063720703,0.0035003875382244,0.0017187398625537,0.0017291877884417,0.3027883768081665,-9.757719039916992,0.0345071256160736
0.020040512084960938,0.0017550581833347,-2.658932498889044e-05,0.0069651752710342,0.2929232120513916,-9.737897872924805,0.0346935093402862
0.025049448013305664,-0.0017356002936139,-2.658932498889044e-05,-1.6141464584507048e-05,0.2927550673484802,-9.69937229156494,-0.0044983327388763
0.0300600528717041,-0.0017356002936139,0.0017187398625537,-1.6141464584507048e-05,0.2728362381458282,-9.71897029876709,0.014670968055725
0.035069942474365234,9.72897032625042e-06,0.0052093984559178,0.0034745170269161,0.3024839162826538,-9.739182472229004,-0.0050843954086303
0.04007983207702637,-0.0017356002936139,-2.658932498889044e-05,-1.6141464584507048e-05,0.2726999223232269,-9.738959312438965,0.0142712891101837
0.045090436935424805,0.0017550581833347,0.0017187398625537,-1.6141464584507048e-05,0.3027361333370209,-9.796971321105955,0.0537033081054687
0.05010032653808594,9.72897032625042e-06,-2.658932498889044e-05,-1.6141464584507048e-05,0.2722069025039673,-9.7796630859375,-0.0065236389636993
0.05511045455932617,9.72897032625042e-06,-2.658932498889044e-05,-1.6141464584507048e-05,0.2927868962287903,-9.75788688659668,0.0342938303947448
0.060120344161987305,0.0035003875382244,0.0017187398625537,-1.6141464584507048e-05,0.2931958436965942,-9.697919845581056,0.035492867231369
0.06513071060180664,9.72897032625042e-06,-2.658932498889044e-05,0.0017291877884417,0.2930595278739929,-9.71790885925293,0.0350931882858276
0.07014060020446777,-0.0017356002936139,0.0052093984559178,-1.6141464584507048e-05,0.2927028238773346,-9.738624572753906,0.0146978795528411
0.07515096664428711,9.72897032625042e-06,0.0034640692174434,0.0034745170269161,0.2726999223232269,-9.738959312438965,0.0142712891101837
0.08015990257263184,9.72897032625042e-06,-2.658932498889044e-05,-1.6141464584507048e-05,0.2925665080547333,-9.75861358642578,0.0142982006072998
0.08517026901245117,-0.0017356002936139,-2.658932498889044e-05,-1.6141464584507048e-05,0.2928391396999359,-9.718635559082031,0.0150975584983825
0.0901801586151123,0.0035003875382244,-2.658932498889044e-05,-1.6141464584507048e-05,0.2928391396999359,-9.718635559082031,0.0150975584983825
0.09519052505493164,-0.0017356002936139,0.0017187398625537,-1.6141464584507048e-05,0.2924824357032776,-9.739350318908691,-0.0052976906299591
0.10020041465759277,9.72897032625042e-06,0.0034640692174434,0.0052198460325598,0.2925665080547333,-9.75861358642578,0.0142982006072998
0.10521078109741211,9.72897032625042e-06,0.0034640692174434,0.0052198460325598,0.2920416593551636,-9.740802764892578,-0.0452888458967208
0.11022067070007324,9.72897032625042e-06,0.0034640692174434,-1.6141464584507048e-05,0.2924301922321319,-9.778602600097656,0.0138985216617584
0.11523103713989258,0.0017550581833347,0.0034640692174434,0.0034745170269161,0.3027883768081665,-9.757719039916992,0.0345071256160736
0.12024092674255371,9.72897032625042e-06,-2.658932498889044e-05,0.0017291877884417,0.2925665080547333,-9.75861358642578,0.0142982006072998
0.12525129318237305,-0.0017356002936139,-2.658932498889044e-05,-1.6141464584507048e-05,0.2927028238773346,-9.738624572753906,0.0146978795528411
0.13026118278503418,0.0017550581833347,-2.658932498889044e-05,0.0052198460325598,0.2926187515258789,-9.719361305236816,-0.0048980116844177
0.1352705955505371,9.72897032625042e-06,-2.658932498889044e-05,-0.0017614706885069,0.2929232120513916,-9.737897872924805,0.0346935093402862
0.14028048515319824,9.72897032625042e-06,-2.658932498889044e-05,-0.0017614706885069,0.3028406202793121,-9.718467712402344,0.0153108537197113
0.14529085159301758,9.72897032625042e-06,0.0017187398625537,-1.6141464584507048e-05,0.3029246926307678,-9.737730026245115,0.0349068045616149
0.1503009796142578,-0.0017356002936139,0.0017187398625537,0.0017291877884417,0.3029246926307678,-9.737730026245115,0.0349068045616149
0.15531110763549805,0.0017550581833347,-2.658932498889044e-05,-1.6141464584507048e-05,0.3029246926307678,-9.737730026245115,0.0349068045616149
0.16032123565673828,9.72897032625042e-06,0.0034640692174434,-1.6141464584507048e-05,0.2924824357032776,-9.739350318908691,-0.0052976906299591
0.16533136367797852,9.72897032625042e-06,0.0017187398625537,-0.0017614706885069,0.3023476004600525,-9.75917148590088,-0.0054840743541717
0.17034149169921875,9.72897032625042e-06,0.0017187398625537,-1.6141464584507048e-05,0.3027043044567108,-9.73845672607422,0.0149111747741699
0.17535161972045898,0.0035003875382244,-2.658932498889044e-05,0.0034745170269161,0.2928391396999359,-9.718635559082031,0.0150975584983825
0.18036174774169922,9.72897032625042e-06,0.0017187398625537,-1.6141464584507048e-05,0.2725636065006256,-9.75894832611084,0.0138716101646423
0.18537187576293945,9.72897032625042e-06,-2.658932498889044e-05,-1.6141464584507048e-05,0.2929754555225372,-9.698646545410156,0.0154972374439239
0.1903820037841797,9.72897032625042e-06,0.0017187398625537,-1.6141464584507048e-05,0.3026202321052551,-9.719193458557127,-0.0046847164630889
0.19539237022399902,-0.0017356002936139,0.0069547276943922,0.0017291877884417,0.2924301922321319,-9.778602600097656,0.0138985216617584
0.20040130615234375,0.0017550581833347,-2.658932498889044e-05,-1.6141464584507048e-05,0.2924824357032776,-9.739350318908691,-0.0052976906299591
0.20541143417358398,0.0017550581833347,0.0017187398625537,0.0034745170269161,0.3021272122859955,-9.75989818572998,-0.025479644536972
0.21042156219482422,9.72897032625042e-06,-0.0017719186143949,-1.6141464584507048e-05,0.2924824357032776,-9.739350318908691,-0.0052976906299591
0.21543192863464355,-0.0017356002936139,-2.658932498889044e-05,0.0034745170269161,0.3023998439311981,-9.71992015838623,-0.0246802866458892
0.2204420566558838,-0.0017356002936139,-2.658932498889044e-05,0.0017291877884417,0.3030610084533691,-9.717741012573242,0.0353064835071563
0.22545218467712402,-0.0017356002936139,-2.658932498889044e-05,-1.6141464584507048e-05,0.2930595278739929,-9.71790885925293,0.0350931882858276
0.23046231269836426,9.72897032625042e-06,-2.658932498889044e-05,-1.6141464584507048e-05,0.2927028238773346,-9.738624572753906,0.0146978795528411
0.2354724407196045,9.72897032625042e-06,-2.658932498889044e-05,-1.6141464584507048e-05,0.2917690277099609,-9.780780792236328,-0.0460882037878036
0.24048256874084473,9.72897032625042e-06,0.0017187398625537,-1.6141464584507048e-05,0.2725636065006256,-9.75894832611084,0.0138716101646423
0.24549293518066406,9.72897032625042e-06,-2.658932498889044e-05,0.0017291877884417,0.2924301922321319,-9.778602600097656,0.0138985216617584
0.2505018711090088,9.72897032625042e-06,-2.658932498889044e-05,-1.6141464584507048e-05,0.2927028238773346,-9.738624572753906,0.0146978795528411
0.2555122375488281,9.72897032625042e-06,-2.658932498889044e-05,-1.6141464584507048e-05,0.2729725539684295,-9.698981285095217,0.0150706470012664
0.26052212715148926,9.72897032625042e-06,0.0052093984559178,-1.6141464584507048e-05,0.2923983633518219,-9.720088005065918,-0.024893581867218
0.2655324935913086,-0.0017356002936139,-2.658932498889044e-05,0.0017291877884417,0.2924824357032776,-9.739350318908691,-0.0052976906299591
0.27054262161254883,-0.003480929415673,-2.658932498889044e-05,-0.0017614706885069,0.3027043044567108,-9.73845672607422,0.0149111747741699
0.27555274963378906,9.72897032625042e-06,0.0034640692174434,0.0017291877884417,0.2925665080547333,-9.75861358642578,0.0142982006072998
0.2805631160736084,0.0017550581833347,-2.658932498889044e-05,0.0034745170269161,0.2928391396999359,-9.718635559082031,0.0150975584983825
0.28557324409484863,0.0017550581833347,-2.658932498889044e-05,0.0017291877884417,0.2735496461391449,-9.677539825439451,0.0554614663124084
0.29058337211608887,9.72897032625042e-06,0.0017187398625537,-1.6141464584507048e-05,0.2928391396999359,-9.718635559082031,0.0150975584983825
0.2955925464630127,-0.003480929415673,0.0052093984559178,-1.6141464584507048e-05,0.3027883768081665,-9.757719039916992,0.0345071256160736
0.30060386657714844,9.72897032625042e-06,0.0017187398625537,0.0052198460325598,0.2927028238773346,-9.738624572753906,0.0146978795528411
0.30561280250549316,9.72897032625042e-06,-2.658932498889044e-05,-1.6141464584507048e-05,0.2926505804061889,-9.777875900268556,0.0338941514492034
0.3106231689453125,9.72897032625042e-06,0.0017187398625537,-1.6141464584507048e-05,0.2927868962287903,-9.75788688659668,0.0342938303947448
0.31563305854797363,9.72897032625042e-06,0.0017187398625537,-1.6141464584507048e-05,0.3031973242759704,-9.697751998901367,0.0357061624526977
0.32064342498779297,9.72897032625042e-06,0.0017187398625537,-1.6141464584507048e-05,0.2931958436965942,-9.697919845581056,0.035492867231369
0.3256535530090332,9.72897032625042e-06,-2.658932498889044e-05,0.0034745170269161,0.2732770144939422,-9.717517852783203,0.054662138223648
0.33066391944885254,0.0017550581833347,0.0052093984559178,-0.0017614706885069,0.2927868962287903,-9.75788688659668,0.0342938303947448
0.3356740474700928,9.72897032625042e-06,-2.658932498889044e-05,0.0017291877884417,0.3025679886341095,-9.758445739746094,0.0145114958286285
0.340684175491333,0.0017550581833347,0.0052093984559178,0.0017291877884417,0.3027043044567108,-9.73845672607422,0.0149111747741699
0.34569430351257324,0.0035003875382244,0.0017187398625537,-1.6141464584507048e-05,0.3030087649822235,-9.756993293762209,0.0545026659965515
0.3507044315338135,-0.0017356002936139,0.0052093984559178,-1.6141464584507048e-05,0.2925346791744232,-9.700098991394045,-0.0244939029216766
0.3557145595550537,9.72897032625042e-06,-2.658932498889044e-05,0.0034745170269161,0.2931958436965942,-9.697919845581056,0.035492867231369
0.36072492599487305,9.72897032625042e-06,0.0017187398625537,0.0017291877884417,0.2730566263198852,-9.718243598937988,0.0346665978431701
0.3657338619232178,9.72897032625042e-06,0.0017187398625537,-1.6141464584507048e-05,0.3022635281085968,-9.739909172058104,-0.0250799655914306
0.3707442283630371,0.0017550581833347,-2.658932498889044e-05,0.0034745170269161,0.3023476004600525,-9.75917148590088,-0.0054840743541717
0.37575435638427734,9.72897032625042e-06,-2.658932498889044e-05,-1.6141464584507048e-05,0.2925665080547333,-9.75861358642578,0.0142982006072998
0.3807647228240967,9.72897032625042e-06,0.0052093984559178,0.0034745170269161,0.2724795341491699,-9.73968505859375,-0.0057242810726165
0.3857746124267578,9.72897032625042e-06,-2.658932498889044e-05,0.0017291877884417,0.2926187515258789,-9.719361305236816,-0.0048980116844177
0.39078497886657715,-0.003480929415673,-2.658932498889044e-05,-1.6141464584507048e-05,0.2927868962287903,-9.75788688659668,0.0342938303947448
0.3957951068878174,9.72897032625042e-06,0.0017187398625537,0.0017291877884417,0.3025679886341095,-9.758445739746094,0.0145114958286285
0.4008052349090576,9.72897032625042e-06,-2.658932498889044e-05,-0.0017614706885069,0.2927868962287903,-9.75788688659668,0.0342938303947448
0.40581464767456055,9.72897032625042e-06,0.0052093984559178,0.0052198460325598,0.2927028238773346,-9.738624572753906,0.0146978795528411
0.4108242988586426,9.72897032625042e-06,-2.658932498889044e-05,0.0017291877884417,0.2924824357032776,-9.739350318908691,-0.0052976906299591
0.4158327579498291,9.72897032625042e-06,0.0017187398625537,0.0017291877884417,0.2926187515258789,-9.719361305236816,-0.0048980116844177
0.42084240913391113,9.72897032625042e-06,0.0034640692174434,-1.6141464584507048e-05,0.2926187515258789,-9.719361305236816,-0.0048980116844177
0.42585182189941406,9.72897032625042e-06,-2.658932498889044e-05,-1.6141464584507048e-05,0.2726158499717712,-9.719696044921877,-0.0053246021270751
0.4308614730834961,9.72897032625042e-06,0.0017187398625537,-1.6141464584507048e-05,0.2927868962287903,-9.75788688659668,0.0342938303947448
0.4358711242675781,9.72897032625042e-06,0.0034640692174434,0.0034745170269161,0.2924824357032776,-9.739350318908691,-0.0052976906299591
0.44088053703308105,9.72897032625042e-06,0.0017187398625537,-1.6141464584507048e-05,0.2923461198806762,-9.759339332580566,-0.0056973695755004
0.4458901882171631,9.72897032625042e-06,-0.0017719186143949,0.0017291877884417,0.2923461198806762,-9.759339332580566,-0.0056973695755004
0.450899600982666,-0.003480929415673,0.0034640692174434,-1.6141464584507048e-05,0.3022112846374511,-9.779160499572754,-0.0058837532997131
0.45590925216674805,9.72897032625042e-06,0.0017187398625537,-1.6141464584507048e-05,0.2930595278739929,-9.71790885925293,0.0350931882858276
0.460918664932251,-0.0017356002936139,0.0017187398625537,-1.6141464584507048e-05,0.3030610084533691,-9.717741012573242,0.0353064835071563
0.4659273624420166,9.72897032625042e-06,-2.658932498889044e-05,0.0017291877884417,0.2927028238773346,-9.738624572753906,0.0146978795528411
0.47093796730041504,-0.0017356002936139,-0.0017719186143949,0.0034745170269161,0.3029246926307678,-9.737730026245115,0.0349068045616149
0.47594761848449707,9.72897032625042e-06,-2.658932498889044e-05,-1.6141464584507048e-05,0.2523925602436065,-9.720758438110352,-0.0257467627525329
0.4809558391571045,9.72897032625042e-06,0.0034640692174434,-1.6141464584507048e-05,0.2726158499717712,-9.719696044921877,-0.0053246021270751
0.4859654903411865,9.72897032625042e-06,0.0017187398625537,-1.6141464584507048e-05,0.2725636065006256,-9.75894832611084,0.0138716101646423
0.49097514152526855,9.72897032625042e-06,0.0052093984559178,-0.0017614706885069,0.3024839162826538,-9.739182472229004,-0.0050843954086303
0.4959845542907715,-0.003480929415673,-2.658932498889044e-05,-1.6141464584507048e-05,0.3230639100074768,-9.717405319213867,0.0357330739498138
0.5009944438934326,0.0017550581833347,-2.658932498889044e-05,-1.6141464584507048e-05,0.2726999223232269,-9.738959312438965,0.0142712891101837
0.5060036182403564,9.72897032625042e-06,-2.658932498889044e-05,-1.6141464584507048e-05,0.3030087649822235,-9.756993293762209,0.0545026659965515
0.5110130310058594,0.0017550581833347,-2.658932498889044e-05,0.0017291877884417,0.2724795341491699,-9.73968505859375,-0.0057242810726165
0.5160229206085205,9.72897032625042e-06,0.0052093984559178,0.0034745170269161,0.2930595278739929,-9.71790885925293,0.0350931882858276
0.5210325717926025,9.72897032625042e-06,0.0017187398625537,-1.6141464584507048e-05,0.2924824357032776,-9.739350318908691,-0.0052976906299591
0.5260419845581055,9.72897032625042e-06,0.0034640692174434,-1.6141464584507048e-05,0.2926187515258789,-9.719361305236816,-0.0048980116844177
0.5310516357421875,9.72897032625042e-06,-2.658932498889044e-05,0.0017291877884417,0.2930072844028473,-9.757161140441896,0.0542893707752227
0.536060094833374,9.72897032625042e-06,0.0017187398625537,-1.6141464584507048e-05,0.2923461198806762,-9.759339332580566,-0.0056973695755004
0.541069507598877,9.72897032625042e-06,0.0052093984559178,0.0017291877884417,0.3025679886341095,-9.758445739746094,0.0145114958286285
0.546079158782959,9.72897032625042e-06,-2.658932498889044e-05,0.0052198460325598,0.2927028238773346,-9.738624572753906,0.0146978795528411
0.5510885715484619,9.72897032625042e-06,0.0017187398625537,0.0017291877884417,0.2923142910003662,-9.700824737548828,-0.0444894880056381
0.556098222732544,9.72897032625042e-06,-2.658932498889044e-05,-1.6141464584507048e-05,0.3029769361019134,-9.698478698730469,0.0157105326652526
0.5611076354980469,9.72897032625042e-06,0.0034640692174434,-1.6141464584507048e-05,0.2931958436965942,-9.697919845581056,0.035492867231369
0.566117525100708,9.72897032625042e-06,0.0017187398625537,-1.6141464584507048e-05,0.2920734882354736,-9.799317359924316,-0.0064967274665832
0.5711269378662109,0.0052457167766988,-2.658932498889044e-05,0.0052198460325598,0.2924620509147644,-9.837116241455078,0.0526906549930572
0.576136589050293,9.72897032625042e-06,0.0017187398625537,0.0017291877884417,0.2922098040580749,-9.77932834625244,-0.0060970485210418
0.5811460018157959,9.72897032625042e-06,0.0017187398625537,-1.6141464584507048e-05,0.2926187515258789,-9.719361305236816,-0.0048980116844177
0.5861544609069824,0.0035003875382244,-2.658932498889044e-05,-1.6141464584507048e-05,0.2929754555225372,-9.698646545410156,0.0154972374439239
0.5911641120910645,9.72897032625042e-06,0.0017187398625537,0.0017291877884417,0.3028406202793121,-9.718467712402344,0.0153108537197113
0.5961735248565674,9.72897032625042e-06,-2.658932498889044e-05,0.0017291877884417,0.3027883768081665,-9.757719039916992,0.0345071256160736
0.6011831760406494,-0.0017356002936139,-2.658932498889044e-05,-1.6141464584507048e-05,0.3017705082893371,-9.78061294555664,-0.0458749085664749
0.6061925888061523,9.72897032625042e-06,0.0034640692174434,-1.6141464584507048e-05,0.2727839946746826,-9.758221626281738,0.0338672399520874
0.6112022399902344,9.72897032625042e-06,-2.658932498889044e-05,-1.6141464584507048e-05,0.2924824357032776,-9.739350318908691,-0.0052976906299591
0.6162116527557373,9.72897032625042e-06,0.0034640692174434,0.0017291877884417,0.3024839162826538,-9.739182472229004,-0.0050843954086303
0.6212215423583984,0.0017550581833347,0.0052093984559178,0.0017291877884417,0.2927028238773346,-9.738624572753906,0.0146978795528411
0.6262309551239014,0.0035003875382244,0.0017187398625537,-1.6141464584507048e-05,0.3029246926307678,-9.737730026245115,0.0349068045616149
0.6312406063079834,9.72897032625042e-06,-2.658932498889044e-05,-1.6141464584507048e-05,0.3030610084533691,-9.717741012573242,0.0353064835071563
0.6362500190734863,-0.0017356002936139,-2.658932498889044e-05,0.0017291877884417,0.3022112846374511,-9.779160499572754,-0.0058837532997131
0.6412594318389893,9.72897032625042e-06,0.0017187398625537,-1.6141464584507048e-05,0.3025157451629638,-9.797697067260742,0.0337077677249908
0.6462681293487549,-0.0017356002936139,0.0017187398625537,-1.6141464584507048e-05,0.3024316728115082,-9.778434753417969,0.0141118168830871
0.6512775421142578,9.72897032625042e-06,-2.658932498889044e-05,0.0034745170269161,0.3227072060108185,-9.738121032714844,0.0153377652168273
0.6562871932983398,9.72897032625042e-06,0.0017187398625537,-1.6141464584507048e-05,0.2931958436965942,-9.697919845581056,0.035492867231369
0.6612966060638428,9.72897032625042e-06,0.0034640692174434,-1.6141464584507048e-05,0.3023998439311981,-9.71992015838623,-0.0246802866458892
0.6663062572479248,-0.0017356002936139,0.0017187398625537,-0.0017614706885069,0.2923461198806762,-9.759339332580566,-0.0056973695755004
0.6713154315948486,9.72897032625042e-06,0.0017187398625537,0.0017291877884417,0.3225708901882171,-9.75811004638672,0.014938086271286
0.6763253211975098,-0.0017356002936139,0.0017187398625537,-1.6141464584507048e-05,0.2925665080547333,-9.75861358642578,0.0142982006072998
0.6813347339630127,-0.0017356002936139,0.0034640692174434,0.0017291877884417,0.2927868962287903,-9.75788688659668,0.0342938303947448
0.6863443851470947,9.72897032625042e-06,-2.658932498889044e-05,-1.6141464584507048e-05,0.2923461198806762,-9.759339332580566,-0.0056973695755004
0.6913540363311768,9.72897032625042e-06,-2.658932498889044e-05,-0.0017614706885069,0.2928391396999359,-9.718635559082031,0.0150975584983825
0.6963634490966797,9.72897032625042e-06,-2.658932498889044e-05,-1.6141464584507048e-05,0.2724795341491699,-9.73968505859375,-0.0057242810726165
0.7013731002807617,9.72897032625042e-06,-2.658932498889044e-05,0.0017291877884417,0.2927028238773346,-9.738624572753906,0.0146978795528411
0.7063815593719482,9.72897032625042e-06,-2.658932498889044e-05,0.0017291877884417,0.3027043044567108,-9.73845672607422,0.0149111747741699
0.7113921642303467,9.72897032625042e-06,-2.658932498889044e-05,-1.6141464584507048e-05,0.3022953569889068,-9.798423767089844,0.0137121379375457
0.7164006233215332,9.72897032625042e-06,0.0017187398625537,-1.6141464584507048e-05,0.2929232120513916,-9.737897872924805,0.0346935093402862
0.7214102745056152,0.0017550581833347,0.0017187398625537,0.0017291877884417,0.3026202321052551,-9.719193458557127,-0.0046847164630889
0.7264194488525391,-0.0017356002936139,0.0034640692174434,0.0034745170269161,0.2728362381458282,-9.71897029876709,0.014670968055725
0.7314291000366211,0.0035003875382244,-2.658932498889044e-05,-1.6141464584507048e-05,0.3024839162826538,-9.739182472229004,-0.0050843954086303
0.7364387512207031,-0.0017356002936139,0.0017187398625537,-1.6141464584507048e-05,0.2925665080547333,-9.75861358642578,0.0142982006072998
0.741448163986206,0.0017550581833347,0.0017187398625537,0.0069651752710342,0.2729203104972839,-9.738232612609863,0.0342669188976287
0.7464580535888672,9.72897032625042e-06,-0.0017719186143949,-1.6141464584507048e-05,0.2729203104972839,-9.738232612609863,0.0342669188976287
0.751467227935791,0.0017550581833347,0.0034640692174434,0.0017291877884417,0.3025679886341095,-9.758445739746094,0.0145114958286285
0.7564771175384521,0.0017550581833347,0.0017187398625537,-1.6141464584507048e-05,0.2925665080547333,-9.75861358642578,0.0142982006072998
0.7614865303039551,9.72897032625042e-06,0.0017187398625537,0.0034745170269161,0.2721228301525116,-9.760400772094728,-0.0261195302009582
0.7664952278137207,9.72897032625042e-06,0.0034640692174434,0.0034745170269161,0.3025679886341095,-9.758445739746094,0.0145114958286285
0.7715046405792236,9.72897032625042e-06,0.0034640692174434,-1.6141464584507048e-05,0.2924824357032776,-9.739350318908691,-0.0052976906299591
0.7765140533447266,-0.0017356002936139,-2.658932498889044e-05,0.0034745170269161,0.2922620475292206,-9.740077018737791,-0.0252932608127594
0.7815237045288086,9.72897032625042e-06,-2.658932498889044e-05,0.0052198460325598,0.2927028238773346,-9.738624572753906,0.0146978795528411
0.7865331172943115,9.72897032625042e-06,-2.658932498889044e-05,-0.0035067999269813,0.2922620475292206,-9.740077018737791,-0.0252932608127594
0.7915427684783936,9.72897032625042e-06,-2.658932498889044e-05,0.0017291877884417,0.2929232120513916,-9.737897872924805,0.0346935093402862
0.7965521812438965,9.72897032625042e-06,0.0052093984559178,0.0034745170269161,0.2925665080547333,-9.75861358642578,0.0142982006072998
0.8015618324279785,-0.0017356002936139,-2.658932498889044e-05,-1.6141464584507048e-05,0.3029246926307678,-9.737730026245115,0.0349068045616149
0.8065712451934814,9.72897032625042e-06,-2.658932498889044e-05,0.0052198460325598,0.2927028238773346,-9.738624572753906,0.0146978795528411
0.8115808963775635,9.72897032625042e-06,-2.658932498889044e-05,-1.6141464584507048e-05,0.2929232120513916,-9.737897872924805,0.0346935093402862
0.8165903091430664,9.72897032625042e-06,0.0017187398625537,-1.6141464584507048e-05,0.3029246926307678,-9.737730026245115,0.0349068045616149
0.8215999603271484,9.72897032625042e-06,-2.658932498889044e-05,-1.6141464584507048e-05,0.3027043044567108,-9.73845672607422,0.0149111747741699
0.826608419418335,9.72897032625042e-06,-2.658932498889044e-05,0.0017291877884417,0.2925665080547333,-9.75861358642578,0.0142982006072998
0.8316178321838379,9.72897032625042e-06,0.0034640692174434,-1.6141464584507048e-05,0.2726999223232269,-9.738959312438965,0.0142712891101837
0.8366274833679199,9.72897032625042e-06,-2.658932498889044e-05,-1.6141464584507048e-05,0.3032813966274261,-9.717015266418455,0.0553020238876342
0.8416368961334229,-0.0017356002936139,0.0034640692174434,0.0034745170269161,0.2930595278739929,-9.71790885925293,0.0350931882858276
0.8466465473175049,0.0017550581833347,-2.658932498889044e-05,0.0034745170269161,0.2929232120513916,-9.737897872924805,0.0346935093402862
0.8516559600830078,9.72897032625042e-06,-2.658932498889044e-05,-0.0017614706885069,0.2720387578010559,-9.741137504577637,-0.0457154363393783
0.856665849685669,0.0035003875382244,-2.658932498889044e-05,0.0052198460325598,0.3029769361019134,-9.698478698730469,0.0157105326652526
0.8616750240325928,9.72897032625042e-06,-2.658932498889044e-05,-1.6141464584507048e-05,0.3030610084533691,-9.717741012573242,0.0353064835071563
0.8666849136352539,-0.0017356002936139,0.0034640692174434,-1.6141464584507048e-05,0.2729203104972839,-9.738232612609863,0.0342669188976287
0.8716933727264404,9.72897032625042e-06,0.0017187398625537,0.0034745170269161,0.2725636065006256,-9.75894832611084,0.0138716101646423
0.8767027854919434,9.72897032625042e-06,-2.658932498889044e-05,0.0034745170269161,0.2925665080547333,-9.75861358642578,0.0142982006072998
0.8817124366760254,-0.003480929415673,-2.658932498889044e-05,-0.0017614706885069,0.3022635281085968,-9.739909172058104,-0.0250799655914306
0.8867228031158447,9.72897032625042e-06,-2.658932498889044e-05,0.0017291877884417,0.3034177124500274,-9.697026252746582,0.0557017028331756
0.8917315006256104,9.72897032625042e-06,-2.658932498889044e-05,-1.6141464584507048e-05,0.2729203104972839,-9.738232612609863,0.0342669188976287
0.8967409133911133,9.72897032625042e-06,-2.658932498889044e-05,-1.6141464584507048e-05,0.2724795341491699,-9.73968505859375,-0.0057242810726165
0.9017505645751953,9.72897032625042e-06,0.0017187398625537,-1.6141464584507048e-05,0.2924824357032776,-9.739350318908691,-0.0052976906299591
0.9067599773406982,9.72897032625042e-06,0.0017187398625537,-1.6141464584507048e-05,0.3029246926307678,-9.737730026245115,0.0349068045616149
0.9117696285247803,9.72897032625042e-06,-2.658932498889044e-05,0.0017291877884417,0.3025679886341095,-9.758445739746094,0.0145114958286285
0.9167790412902832,9.72897032625042e-06,0.0034640692174434,-1.6141464584507048e-05,0.2928391396999359,-9.718635559082031,0.0150975584983825
0.9217886924743652,9.72897032625042e-06,0.0017187398625537,0.0034745170269161,0.2924824357032776,-9.739350318908691,-0.0052976906299591
0.9267981052398682,0.0017550581833347,-2.658932498889044e-05,-1.6141464584507048e-05,0.3027565479278564,-9.699204444885254,-0.0042850375175476
0.9318075180053711,0.0017550581833347,0.0017187398625537,0.0052198460325598,0.3022635281085968,-9.739909172058104,-0.0250799655914306
0.9368164539337158,9.72897032625042e-06,0.0034640692174434,0.0017291877884417,0.2923461198806762,-9.759339332580566,-0.0056973695755004
0.941826581954956,9.72897032625042e-06,-2.658932498889044e-05,-1.6141464584507048e-05,0.2724272906780243,-9.778937339782717,0.0134719312191009
0.9468350410461426,9.72897032625042e-06,0.0034640692174434,-1.6141464584507048e-05,0.3023476004600525,-9.75917148590088,-0.0054840743541717
0.9518446922302246,0.0017550581833347,0.0017187398625537,0.0017291877884417,0.3031973242759704,-9.697751998901367,0.0357061624526977
0.9568543434143066,-0.0017356002936139,-2.658932498889044e-05,-1.6141464584507048e-05,0.2726158499717712,-9.719696044921877,-0.0053246021270751
0.9618637561798096,0.0017550581833347,-2.658932498889044e-05,-1.6141464584507048e-05,0.2529696524143219,-9.69931697845459,0.014644056558609
0.9668736457824707,-0.0017356002936139,-2.658932498889044e-05,-0.0035067999269813,0.3027883768081665,-9.757719039916992,0.0345071256160736
0.9718828201293945,0.0017550581833347,0.0017187398625537,0.0034745170269161,0.3024316728115082,-9.778434753417969,0.0141118168830871
0.9768922328948975,0.0017550581833347,-2.658932498889044e-05,-1.6141464584507048e-05,0.2921257317066192,-9.760066032409668,-0.0256929397583007
0.9819018840789795,9.72897032625042e-06,0.0052093984559178,-1.6141464584507048e-05,0.2927028238773346,-9.738624572753906,0.0146978795528411
0.9869112968444824,0.0035003875382244,0.0017187398625537,-1.6141464584507048e-05,0.2922620475292206,-9.740077018737791,-0.0252932608127594
0.9919209480285645,9.72897032625042e-06,0.0017187398625537,0.0017291877884417,0.2928391396999359,-9.718635559082031,0.0150975584983825
0.9969303607940674,9.72897032625042e-06,0.0017187398625537,-1.6141464584507048e-05,0.3027565479278564,-9.699204444885254,-0.0042850375175476
1.001939058303833,9.72897032625042e-06,0.0034640692174434,0.0034745170269161,0.3028406202793121,-9.718467712402344,0.0153108537197113
1.006948471069336,9.72897032625042e-06,-2.658932498889044e-05,0.0034745170269161,0.2923983633518219,-9.720088005065918,-0.024893581867218
1.011958122253418,-0.0017356002936139,0.0034640692174434,-1.6141464584507048e-05,0.2726999223232269,-9.738959312438965,0.0142712891101837
1.016967535018921,9.72897032625042e-06,0.0052093984559178,-1.6141464584507048e-05,0.2926505804061889,-9.777875900268556,0.0338941514492034
1.021977186203003,9.72897032625042e-06,-2.658932498889044e-05,-1.6141464584507048e-05,0.2931436002254486,-9.73717212677002,0.0546890497207641
1.026986837387085,9.72897032625042e-06,0.0052093984559178,0.0052198460325598,0.2924824357032776,-9.739350318908691,-0.0052976906299591
1.031996250152588,9.72897032625042e-06,0.0034640692174434,0.0017291877884417,0.3027043044567108,-9.73845672607422,0.0149111747741699
1.03700590133667,-0.0017356002936139,-2.658932498889044e-05,0.0017291877884417,0.2729203104972839,-9.738232612609863,0.0342669188976287
1.0420153141021729,-0.0017356002936139,0.0017187398625537,-1.6141464584507048e-05,0.2924824357032776,-9.739350318908691,-0.0052976906299591
1.0470240116119385,-0.0017356002936139,-2.658932498889044e-05,-1.6141464584507048e-05,0.3229275941848755,-9.737394332885742,0.0353333950042724
1.0520334243774414,9.72897032625042e-06,0.0017187398625537,0.0017291877884417,0.2722591459751129,-9.740411758422852,-0.0257198512554168
1.0570430755615234,9.72897032625042e-06,0.0017187398625537,0.0052198460325598,0.3025679886341095,-9.758445739746094,0.0145114958286285
1.0620524883270264,9.72897032625042e-06,-2.658932498889044e-05,-1.6141464584507048e-05,0.3029246926307678,-9.737730026245115,0.0349068045616149
1.0670621395111084,9.72897032625042e-06,0.0017187398625537,0.0052198460325598,0.2922620475292206,-9.740077018737791,-0.0252932608127594
1.0720715522766113,9.72897032625042e-06,-2.658932498889044e-05,-1.6141464584507048e-05,0.2726158499717712,-9.719696044921877,-0.0053246021270751
1.0770809650421143,-0.0017356002936139,-2.658932498889044e-05,0.0017291877884417,0.2923461198806762,-9.759339332580566,-0.0056973695755004
1.0820906162261963,9.72897032625042e-06,-2.658932498889044e-05,-1.6141464584507048e-05,0.3227072060108185,-9.738121032714844,0.0153377652168273
1.0871000289916992,9.72897032625042e-06,0.0034640692174434,0.0017291877884417,0.3030610084533691,-9.717741012573242,0.0353064835071563
1.0921094417572021,9.72897032625042e-06,0.0034640692174434,0.0034745170269161,0.2927028238773346,-9.738624572753906,0.0146978795528411
1.0971190929412842,0.0017550581833347,0.0034640692174434,-1.6141464584507048e-05,0.2726158499717712,-9.719696044921877,-0.0053246021270751
1.1021287441253662,9.72897032625042e-06,-2.658932498889044e-05,-1.6141464584507048e-05,0.3029769361019134,-9.698478698730469,0.0157105326652526
1.1071372032165527,-0.0017356002936139,0.0017187398625537,-1.6141464584507048e-05,0.3024839162826538,-9.739182472229004,-0.0050843954086303
1.1121468544006348,9.72897032625042e-06,-2.658932498889044e-05,0.0052198460325598,0.2924824357032776,-9.739350318908691,-0.0052976906299591
1.1171562671661377,9.72897032625042e-06,0.0034640692174434,-1.6141464584507048e-05,0.3024839162826538,-9.739182472229004,-0.0050843954086303
1.1221654415130615,9.72897032625042e-06,-2.658932498889044e-05,0.0017291877884417,0.2924824357032776,-9.739350318908691,-0.0052976906299591
1.1271753311157227,-0.0017356002936139,0.0017187398625537,0.0052198460325598,0.3034177124500274,-9.697026252746582,0.0557017028331756
1.1321847438812256,9.72897032625042e-06,0.0034640692174434,-1.6141464584507048e-05,0.2529174089431762,-9.738568305969238,0.0338403284549713
1.1371943950653076,9.72897032625042e-06,0.0017187398625537,-1.6141464584507048e-05,0.3027883768081665,-9.757719039916992,0.0345071256160736
1.1422040462493896,-0.0017356002936139,-2.658932498889044e-05,-0.0017614706885069,0.2928391396999359,-9.718635559082031,0.0150975584983825
1.1472134590148926,9.72897032625042e-06,0.0017187398625537,0.0034745170269161,0.2927028238773346,-9.738624572753906,0.0146978795528411
1.1522226333618164,9.72897032625042e-06,0.0017187398625537,-1.6141464584507048e-05,0.2922938764095306,-9.798591613769531,0.013498842716217
1.1572325229644775,-0.0017356002936139,-2.658932498889044e-05,0.0034745170269161,0.2927028238773346,-9.738624572753906,0.0146978795528411
1.1622419357299805,0.0035003875382244,0.0017187398625537,-1.6141464584507048e-05,0.2723954617977142,-9.720422744750977,-0.0253201723098754
1.1672515869140625,9.72897032625042e-06,-2.658932498889044e-05,0.0034745170269161,0.2726158499717712,-9.719696044921877,-0.0053246021270751
1.172260046005249,9.72897032625042e-06,0.0017187398625537,-1.6141464584507048e-05,0.2928391396999359,-9.718635559082031,0.0150975584983825
1.177269458770752,9.72897032625042e-06,0.0034640692174434,0.0034745170269161,0.3029246926307678,-9.737730026245115,0.0349068045616149
1.182279109954834,0.0017550581833347,0.0017187398625537,-1.6141464584507048e-05,0.3022635281085968,-9.739909172058104,-0.0250799655914306
1.187288522720337,9.72897032625042e-06,0.0034640692174434,0.0017291877884417,0.3026202321052551,-9.719193458557127,-0.0046847164630889
1.192298173904419,9.72897032625042e-06,0.0034640692174434,-1.6141464584507048e-05,0.3032813966274261,-9.717015266418455,0.0553020238876342
1.1973075866699219,9.72897032625042e-06,-2.658932498889044e-05,0.0017291877884417,0.2923461198806762,-9.759339332580566,-0.0056973695755004
1.202317237854004,9.72897032625042e-06,-2.658932498889044e-05,0.0017291877884417,0.2928391396999359,-9.718635559082031,0.0150975584983825
1.2073266506195068,0.0017550581833347,-2.658932498889044e-05,-1.6141464584507048e-05,0.3025679886341095,-9.758445739746094,0.0145114958286285
1.2123363018035889,9.72897032625042e-06,-2.658932498889044e-05,-1.6141464584507048e-05,0.2927028238773346,-9.738624572753906,0.0146978795528411
1.2173457145690918,9.72897032625042e-06,-2.658932498889044e-05,-1.6141464584507048e-05,0.2926187515258789,-9.719361305236816,-0.0048980116844177
1.2223551273345947,0.0017550581833347,0.0052093984559178,0.0034745170269161,0.2927028238773346,-9.738624572753906,0.0146978795528411
1.2273635864257812,9.72897032625042e-06,-2.658932498889044e-05,0.0017291877884417,0.2924824357032776,-9.739350318908691,-0.0052976906299591
1.2323732376098633,9.72897032625042e-06,0.0017187398625537,-1.6141464584507048e-05,0.2929754555225372,-9.698646545410156,0.0154972374439239
1.2373826503753662,9.72897032625042e-06,0.0017187398625537,0.0052198460325598,0.2929232120513916,-9.737897872924805,0.0346935093402862
1.24239182472229,9.72897032625042e-06,-2.658932498889044e-05,-1.6141464584507048e-05,0.3227072060108185,-9.738121032714844,0.0153377652168273
1.2474017143249512,9.72897032625042e-06,0.0052093984559178,0.0034745170269161,0.2731929421424866,-9.698254585266112,0.0350662767887115
1.252411127090454,9.72897032625042e-06,-2.658932498889044e-05,-1.6141464584507048e-05,0.2927868962287903,-9.75788688659668,0.0342938303947448
1.2574207782745361,-0.0017356002936139,0.0017187398625537,-1.6141464584507048e-05,0.3029246926307678,-9.737730026245115,0.0349068045616149
1.2624304294586182,9.72897032625042e-06,0.0017187398625537,-1.6141464584507048e-05,0.2925665080547333,-9.75861358642578,0.0142982006072998
1.267439603805542,9.72897032625042e-06,-2.658932498889044e-05,-1.6141464584507048e-05,0.2927028238773346,-9.738624572753906,0.0146978795528411
1.272449254989624,0.0017550581833347,0.0052093984559178,0.0017291877884417,0.2929232120513916,-9.737897872924805,0.0346935093402862
1.277458667755127,9.72897032625042e-06,-2.658932498889044e-05,-0.0017614706885069,0.2921257317066192,-9.760066032409668,-0.0256929397583007
1.282468318939209,9.72897032625042e-06,-2.658932498889044e-05,-1.6141464584507048e-05,0.3023476004600525,-9.75917148590088,-0.0054840743541717
1.2874767780303955,9.72897032625042e-06,0.0017187398625537,-1.6141464584507048e-05,0.2926187515258789,-9.719361305236816,-0.0048980116844177
1.2924864292144775,9.72897032625042e-06,-2.658932498889044e-05,-1.6141464584507048e-05,0.3025361597537994,-9.699931144714355,-0.0242806077003479
1.2974958419799805,9.72897032625042e-06,0.0017187398625537,0.0017291877884417,0.3031973242759704,-9.697751998901367,0.0357061624526977
1.3025054931640625,9.72897032625042e-06,0.0017187398625537,-1.6141464584507048e-05,0.3029246926307678,-9.737730026245115,0.0349068045616149
1.3075149059295654,9.72897032625042e-06,0.0034640692174434,-1.6141464584507048e-05,0.2929232120513916,-9.737897872924805,0.0346935093402862
1.3125243186950684,0.0017550581833347,0.0052093984559178,-1.6141464584507048e-05,0.2925142645835876,-9.79786491394043,0.0334944725036621
1.3175339698791504,0.0017550581833347,-2.658932498889044e-05,-1.6141464584507048e-05,0.2724272906780243,-9.778937339782717,0.0134719312191009
1.3225433826446533,9.72897032625042e-06,-2.658932498889044e-05,-1.6141464584507048e-05,0.2926187515258789,-9.719361305236816,-0.0048980116844177
1.3275530338287354,0.0035003875382244,0.0034640692174434,-1.6141464584507048e-05,0.2726158499717712,-9.719696044921877,-0.0053246021270751
1.3325624465942383,9.72897032625042e-06,-2.658932498889044e-05,-1.6141464584507048e-05,0.3029769361019134,-9.698478698730469,0.0157105326652526
1.3375720977783203,-0.0017356002936139,-2.658932498889044e-05,0.0017291877884417,0.2726999223232269,-9.738959312438965,0.0142712891101837
1.3425815105438232,-0.0017356002936139,0.0017187398625537,-1.6141464584507048e-05,0.2923461198806762,-9.759339332580566,-0.0056973695755004
1.347590446472168,-0.0017356002936139,-2.658932498889044e-05,-1.6141464584507048e-05,0.2925665080547333,-9.75861358642578,0.0142982006072998
1.3525996208190918,9.72897032625042e-06,-2.658932498889044e-05,-1.6141464584507048e-05,0.3024839162826538,-9.739182472229004,-0.0050843954086303
1.3576090335845947,-0.0017356002936139,0.0034640692174434,-1.6141464584507048e-05,0.3030610084533691,-9.717741012573242,0.0353064835071563
1.3626186847686768,9.72897032625042e-06,0.0017187398625537,0.0017291877884417,0.3024839162826538,-9.739182472229004,-0.0050843954086303
1.3676280975341797,9.72897032625042e-06,-2.658932498889044e-05,-1.6141464584507048e-05,0.2928391396999359,-9.718635559082031,0.0150975584983825
1.3726377487182617,9.72897032625042e-06,0.0052093984559178,-1.6141464584507048e-05,0.3025679886341095,-9.758445739746094,0.0145114958286285
1.3776471614837646,9.72897032625042e-06,-2.658932498889044e-05,0.0034745170269161,0.2925665080547333,-9.75861358642578,0.0142982006072998
1.3826568126678467,9.72897032625042e-06,-2.658932498889044e-05,-1.6141464584507048e-05,0.2922938764095306,-9.798591613769531,0.013498842716217
1.3876662254333496,9.72897032625042e-06,-2.658932498889044e-05,0.0034745170269161,0.2922098040580749,-9.77932834625244,-0.0060970485210418
1.3926756381988525,9.72897032625042e-06,-2.658932498889044e-05,0.0017291877884417,0.2930595278739929,-9.71790885925293,0.0350931882858276
1.397684097290039,-0.0017356002936139,0.0017187398625537,-1.6141464584507048e-05,0.2931958436965942,-9.697919845581056,0.035492867231369
1.402693510055542,9.72897032625042e-06,0.0034640692174434,0.0017291877884417,0.2927028238773346,-9.738624572753906,0.0146978795528411
1.4077050685882568,0.0035003875382244,0.0034640692174434,-1.6141464584507048e-05,0.2327781915664672,-9.758892059326172,0.0330140590667724
1.4127163887023926,9.72897032625042e-06,-2.658932498889044e-05,0.0017291877884417,0.2722069025039673,-9.7796630859375,-0.0065236389636993
1.4177274703979492,9.72897032625042e-06,0.0017187398625537,-1.6141464584507048e-05,0.2925665080547333,-9.75861358642578,0.0142982006072998
1.422738790512085,9.72897032625042e-06,0.0017187398625537,0.0017291877884417,0.2929232120513916,-9.737897872924805,0.0346935093402862
1.4277501106262207,9.72897032625042e-06,-2.658932498889044e-05,0.0034745170269161,0.2927550673484802,-9.69937229156494,-0.0044983327388763
1.4327614307403564,-0.0017356002936139,-2.658932498889044e-05,-1.6141464584507048e-05,0.2926187515258789,-9.719361305236816,-0.0048980116844177
1.4377727508544922,9.72897032625042e-06,-2.658932498889044e-05,0.0034745170269161,0.2929232120513916,-9.737897872924805,0.0346935093402862
1.4427838325500488,-0.0017356002936139,0.0069547276943922,-1.6141464584507048e-05,0.2728362381458282,-9.71897029876709,0.014670968055725
1.4477956295013428,-0.0017356002936139,0.0052093984559178,0.0017291877884417,0.3025679886341095,-9.758445739746094,0.0145114958286285
1.4528067111968994,9.72897032625042e-06,-2.658932498889044e-05,-1.6141464584507048e-05,0.2927868962287903,-9.75788688659668,0.0342938303947448
1.4578180313110352,9.72897032625042e-06,-2.658932498889044e-05,0.0017291877884417,0.3227072060108185,-9.738121032714844,0.0153377652168273
1.4628281593322754,-0.0017356002936139,-2.658932498889044e-05,-0.0017614706885069,0.3225708901882171,-9.75811004638672,0.014938086271286
1.4678397178649902,9.72897032625042e-06,-2.658932498889044e-05,0.0034745170269161,0.2929754555225372,-9.698646545410156,0.0154972374439239
1.4728507995605469,-0.0017356002936139,0.0034640692174434,-0.0017614706885069,0.2728884816169739,-9.679718017578123,-0.0045252740383148
1.4778623580932617,9.72897032625042e-06,-2.658932498889044e-05,-1.6141464584507048e-05,0.2726158499717712,-9.719696044921877,-0.0053246021270751
1.4828734397888184,9.72897032625042e-06,-2.658932498889044e-05,0.0052198460325598,0.3024316728115082,-9.778434753417969,0.0141118168830871
1.487884759902954,9.72897032625042e-06,0.0017187398625537,-0.0017614706885069,0.3027883768081665,-9.757719039916992,0.0345071256160736
1.492896318435669,9.72897032625042e-06,-2.658932498889044e-05,-1.6141464584507048e-05,0.2927028238773346,-9.738624572753906,0.0146978795528411
1.4979076385498047,9.72897032625042e-06,0.0034640692174434,0.0017291877884417,0.2922098040580749,-9.77932834625244,-0.0060970485210418
1.5029189586639404,9.72897032625042e-06,-2.658932498889044e-05,-1.6141464584507048e-05,0.2730566263198852,-9.718243598937988,0.0346665978431701
1.5079302787780762,0.0017550581833347,-2.658932498889044e-05,0.0017291877884417,0.2930595278739929,-9.71790885925293,0.0350931882858276
1.5129413604736328,-0.0017356002936139,-2.658932498889044e-05,0.0017291877884417,0.2730566263198852,-9.718243598937988,0.0346665978431701
1.5179529190063477,9.72897032625042e-06,0.0069547276943922,0.0034745170269161,0.2928391396999359,-9.718635559082031,0.0150975584983825
1.522963047027588,9.72897032625042e-06,-2.658932498889044e-05,-1.6141464584507048e-05,0.2922098040580749,-9.77932834625244,-0.0060970485210418
1.5279746055603027,9.72897032625042e-06,0.0052093984559178,0.0017291877884417,0.2724272906780243,-9.778937339782717,0.0134719312191009
1.5329859256744385,9.72897032625042e-06,0.0034640692174434,-1.6141464584507048e-05,0.3029246926307678,-9.737730026245115,0.0349068045616149
1.5379972457885742,0.0017550581833347,0.0052093984559178,0.0034745170269161,0.2926187515258789,-9.719361305236816,-0.0048980116844177
1.54300856590271,9.72897032625042e-06,0.0034640692174434,-1.6141464584507048e-05,0.2926187515258789,-9.719361305236816,-0.0048980116844177
1.5480201244354248,0.0017550581833347,-2.658932498889044e-05,0.0017291877884417,0.2928391396999359,-9.718635559082031,0.0150975584983825
1.5530312061309814,9.72897032625042e-06,-2.658932498889044e-05,-1.6141464584507048e-05,0.2728362381458282,-9.71897029876709,0.014670968055725
1.5580427646636963,9.72897032625042e-06,-2.658932498889044e-05,0.0034745170269161,0.2923461198806762,-9.759339332580566,-0.0056973695755004
1.563053846359253,9.72897032625042e-06,0.0034640692174434,0.0052198460325598,0.2725636065006256,-9.75894832611084,0.0138716101646423
1.5680656433105469,-0.0017356002936139,-2.658932498889044e-05,-1.6141464584507048e-05,0.3025679886341095,-9.758445739746094,0.0145114958286285
1.5730767250061035,9.72897032625042e-06,0.0034640692174434,0.0034745170269161,0.2927028238773346,-9.738624572753906,0.0146978795528411
1.5780870914459229,-0.0017356002936139,0.0034640692174434,0.0017291877884417,0.3026202321052551,-9.719193458557127,-0.0046847164630889
1.5830984115600586,9.72897032625042e-06,-2.658932498889044e-05,0.0017291877884417,0.2926187515258789,-9.719361305236816,-0.0048980116844177
1.5881099700927734,9.72897032625042e-06,-2.658932498889044e-05,-1.6141464584507048e-05,0.2927550673484802,-9.69937229156494,-0.0044983327388763
1.5931212902069092,9.72897032625042e-06,0.0017187398625537,-1.6141464584507048e-05,0.3025679886341095,-9.758445739746094,0.0145114958286285
1.598132610321045,9.72897032625042e-06,-2.658932498889044e-05,-1.6141464584507048e-05,0.2929232120513916,-9.737897872924805,0.0346935093402862
1.6031441688537598,0.0017550581833347,0.0017187398625537,0.0017291877884417,0.2927028238773346,-9.738624572753906,0.0146978795528411
1.6081554889678955,9.72897032625042e-06,-2.658932498889044e-05,-1.6141464584507048e-05,0.3024316728115082,-9.778434753417969,0.0141118168830871
1.6131668090820312,9.72897032625042e-06,0.0017187398625537,-0.0017614706885069,0.2929754555225372,-9.698646545410156,0.0154972374439239
1.618178129196167,9.72897032625042e-06,-0.0017719186143949,-1.6141464584507048e-05,0.2726999223232269,-9.738959312438965,0.0142712891101837
1.6231894493103027,9.72897032625042e-06,0.0017187398625537,0.0034745170269161,0.2729203104972839,-9.738232612609863,0.0342669188976287
1.6282012462615967,9.72897032625042e-06,-2.658932498889044e-05,-1.6141464584507048e-05,0.3027043044567108,-9.73845672607422,0.0149111747741699
1.6332123279571533,0.0017550581833347,-2.658932498889044e-05,0.0017291877884417,0.2924824357032776,-9.739350318908691,-0.0052976906299591
1.6382229328155518,9.72897032625042e-06,-2.658932498889044e-05,-0.0035067999269813,0.3025679886341095,-9.758445739746094,0.0145114958286285
1.6432342529296875,9.72897032625042e-06,0.0017187398625537,-1.6141464584507048e-05,0.3027883768081665,-9.757719039916992,0.0345071256160736
1.6482455730438232,-0.0017356002936139,-2.658932498889044e-05,0.0017291877884417,0.2927028238773346,-9.738624572753906,0.0146978795528411
1.653257131576538,9.72897032625042e-06,0.0052093984559178,-1.6141464584507048e-05,0.3230639100074768,-9.717405319213867,0.0357330739498138
1.6582684516906738,0.0017550581833347,0.0017187398625537,0.0017291877884417,0.2929232120513916,-9.737897872924805,0.0346935093402862
1.6632797718048096,9.72897032625042e-06,0.0034640692174434,-1.6141464584507048e-05,0.3031450808048248,-9.737004280090332,0.0549023449420928
1.6682913303375244,-0.003480929415673,0.0017187398625537,0.0017291877884417,0.2725636065006256,-9.75894832611084,0.0138716101646423
1.6733026504516602,9.72897032625042e-06,0.0034640692174434,0.0017291877884417,0.2731406986713409,-9.737506866455078,0.0542624592781066
1.678314447402954,0.0017550581833347,0.0052093984559178,-1.6141464584507048e-05,0.2929232120513916,-9.737897872924805,0.0346935093402862
1.6833255290985107,-0.0017356002936139,0.0017187398625537,0.0034745170269161,0.3028406202793121,-9.718467712402344,0.0153108537197113
1.68833589553833,-0.0017356002936139,-2.658932498889044e-05,0.0034745170269161,0.2923983633518219,-9.720088005065918,-0.024893581867218
1.6933484077453613,9.72897032625042e-06,-2.658932498889044e-05,0.0017291877884417,0.3231479823589325,-9.736668586730955,0.0553289353847503
1.6983592510223389,-0.0017356002936139,0.0017187398625537,0.0017291877884417,0.2926187515258789,-9.719361305236816,-0.0048980116844177
1.7033703327178955,0.0035003875382244,0.0034640692174434,-1.6141464584507048e-05,0.3227072060108185,-9.738121032714844,0.0153377652168273
1.7083816528320312,-0.0017356002936139,0.0017187398625537,0.0017291877884417,0.2925665080547333,-9.75861358642578,0.0142982006072998
1.713392972946167,-0.0017356002936139,-2.658932498889044e-05,-1.6141464584507048e-05,0.2923461198806762,-9.759339332580566,-0.0056973695755004
1.7184045314788818,9.72897032625042e-06,-2.658932498889044e-05,-1.6141464584507048e-05,0.2927868962287903,-9.75788688659668,0.0342938303947448
1.7234160900115967,9.72897032625042e-06,-2.658932498889044e-05,0.0017291877884417,0.2922620475292206,-9.740077018737791,-0.0252932608127594
1.7284276485443115,0.0017550581833347,0.0017187398625537,0.0052198460325598,0.3223186731338501,-9.700321197509766,-0.0438496023416519
1.7334389686584473,-0.0052262586541473,0.0017187398625537,-0.0035067999269813,0.3028406202793121,-9.718467712402344,0.0153108537197113
1.738450527191162,0.0017550581833347,-2.658932498889044e-05,0.0034745170269161,0.2924824357032776,-9.739350318908691,-0.0052976906299591
1.7434618473052979,9.72897032625042e-06,0.0017187398625537,-0.0017614706885069,0.3228435218334198,-9.718132019042969,0.0157374441623687
1.7484736442565918,0.0017550581833347,0.0034640692174434,-1.6141464584507048e-05,0.3027043044567108,-9.73845672607422,0.0149111747741699
1.7534849643707275,9.72897032625042e-06,-2.658932498889044e-05,0.0017291877884417,0.3028406202793121,-9.718467712402344,0.0153108537197113
1.7584962844848633,-0.0017356002936139,0.0017187398625537,-1.6141464584507048e-05,0.3028406202793121,-9.718467712402344,0.0153108537197113
1.7635066509246826,9.72897032625042e-06,-2.658932498889044e-05,0.0017291877884417,0.2729725539684295,-9.698981285095217,0.0150706470012664
1.7685179710388184,9.72897032625042e-06,0.0034640692174434,-1.6141464584507048e-05,0.2731929421424866,-9.698254585266112,0.0350662767887115
1.7735295295715332,9.72897032625042e-06,-2.658932498889044e-05,0.0034745170269161,0.2930595278739929,-9.71790885925293,0.0350931882858276
1.778541088104248,9.72897032625042e-06,0.0034640692174434,-1.6141464584507048e-05,0.2927028238773346,-9.738624572753906,0.0146978795528411
1.7835524082183838,9.72897032625042e-06,0.0017187398625537,-1.6141464584507048e-05,0.3023476004600525,-9.75917148590088,-0.0054840743541717
1.7885639667510986,-0.0017356002936139,-2.658932498889044e-05,-1.6141464584507048e-05,0.2927028238773346,-9.738624572753906,0.0146978795528411
1.7935755252838135,-0.0017356002936139,-2.658932498889044e-05,-1.6141464584507048e-05,0.2930072844028473,-9.757161140441896,0.0542893707752227
1.7985870838165283,9.72897032625042e-06,0.0017187398625537,0.0052198460325598,0.3024839162826538,-9.739182472229004,-0.0050843954086303
1.8035986423492432,9.72897032625042e-06,0.0052093984559178,0.0017291877884417,0.3030610084533691,-9.717741012573242,0.0353064835071563
1.808610439300537,9.72897032625042e-06,-2.658932498889044e-05,0.0034745170269161,0.2930595278739929,-9.71790885925293,0.0350931882858276
1.8136215209960938,9.72897032625042e-06,0.0017187398625537,-1.6141464584507048e-05,0.2923461198806762,-9.759339332580566,-0.0056973695755004
1.8186330795288086,9.72897032625042e-06,-2.658932498889044e-05,0.0017291877884417,0.2924824357032776,-9.739350318908691,-0.0052976906299591
1.823643445968628,9.72897032625042e-06,0.0017187398625537,-0.0017614706885069,0.2926187515258789,-9.719361305236816,-0.0048980116844177
1.8286552429199219,0.0035003875382244,0.0034640692174434,0.0017291877884417,0.2932799160480499,-9.717183113098145,0.0550887286663055
1.8336665630340576,-0.0017356002936139,0.0034640692174434,0.0017291877884417,0.3027043044567108,-9.73845672607422,0.0149111747741699
1.8386778831481934,9.72897032625042e-06,0.0017187398625537,0.0034745170269161,0.2928391396999359,-9.718635559082031,0.0150975584983825
1.8436894416809082,9.72897032625042e-06,0.0017187398625537,-1.6141464584507048e-05,0.3022635281085968,-9.739909172058104,-0.0250799655914306
1.8487012386322021,-0.0017356002936139,-2.658932498889044e-05,-1.6141464584507048e-05,0.3025679886341095,-9.758445739746094,0.0145114958286285
1.853712558746338,0.0017550581833347,0.0034640692174434,0.0034745170269161,0.2925665080547333,-9.75861358642578,0.0142982006072998
1.8587241172790527,9.72897032625042e-06,-2.658932498889044e-05,-1.6141464584507048e-05,0.3023476004600525,-9.75917148590088,-0.0054840743541717
1.8637354373931885,9.72897032625042e-06,-2.658932498889044e-05,-1.6141464584507048e-05,0.2921257317066192,-9.760066032409668,-0.0256929397583007
1.868746042251587,9.72897032625042e-06,0.0017187398625537,-1.6141464584507048e-05,0.2928391396999359,-9.718635559082031,0.0150975584983825
1.8737576007843018,9.72897032625042e-06,0.0034640692174434,0.0052198460325598,0.2926187515258789,-9.719361305236816,-0.0048980116844177
1.8787696361541748,-0.003480929415673,-0.0017719186143949,-0.0017614706885069,0.3026202321052551,-9.719193458557127,-0.0046847164630889
1.8837807178497314,0.0017550581833347,-2.658932498889044e-05,-1.6141464584507048e-05,0.2925665080547333,-9.75861358642578,0.0142982006072998
1.8887922763824463,0.0017550581833347,0.0017187398625537,-1.6141464584507048e-05,0.2726999223232269,-9.738959312438965,0.0142712891101837
1.8938038349151611,-0.0017356002936139,0.0034640692174434,0.0017291877884417,0.2721228301525116,-9.760400772094728,-0.0261195302009582
1.898815631866455,0.0017550581833347,0.0017187398625537,-1.6141464584507048e-05,0.3024839162826538,-9.739182472229004,-0.0050843954086303
1.9038269519805908,-0.0017356002936139,-2.658932498889044e-05,-1.6141464584507048e-05,0.2927028238773346,-9.738624572753906,0.0146978795528411
1.9088382720947266,-0.0017356002936139,0.0017187398625537,0.0034745170269161,0.2731929421424866,-9.698254585266112,0.0350662767887115
1.9138498306274414,-0.0017356002936139,0.0052093984559178,-1.6141464584507048e-05,0.2724795341491699,-9.73968505859375,-0.0057242810726165
1.9188616275787354,-0.0017356002936139,0.0017187398625537,-1.6141464584507048e-05,0.3023998439311981,-9.71992015838623,-0.0246802866458892
1.923872947692871,0.0035003875382244,-2.658932498889044e-05,-1.6141464584507048e-05,0.2928709685802459,-9.77715015411377,0.0538896918296813
1.928884506225586,9.72897032625042e-06,0.0017187398625537,0.0017291877884417,0.2722591459751129,-9.740411758422852,-0.0257198512554168
1.9338963031768799,9.72897032625042e-06,-2.658932498889044e-05,0.0017291877884417,0.2931436002254486,-9.73717212677002,0.0546890497207641
1.9389076232910156,9.72897032625042e-06,-2.658932498889044e-05,-1.6141464584507048e-05,0.2728362381458282,-9.71897029876709,0.014670968055725
1.943918228149414,9.72897032625042e-06,0.0017187398625537,-0.0017614706885069,0.3028406202793121,-9.718467712402344,0.0153108537197113
1.948930025100708,9.72897032625042e-06,0.0052093984559178,-1.6141464584507048e-05,0.2924824357032776,-9.739350318908691,-0.0052976906299591
1.9539413452148438,9.72897032625042e-06,-2.658932498889044e-05,0.0017291877884417,0.2922620475292206,-9.740077018737791,-0.0252932608127594
1.9589529037475586,9.72897032625042e-06,-2.658932498889044e-05,0.0017291877884417,0.3023476004600525,-9.75917148590088,-0.0054840743541717
1.9639647006988525,0.0017550581833347,0.0034640692174434,0.0017291877884417,0.2726999223232269,-9.738959312438965,0.0142712891101837
1.9689760208129883,9.72897032625042e-06,-2.658932498889044e-05,0.0017291877884417,0.2723432183265686,-9.759674072265623,-0.0061239600181579
1.9739880561828613,9.72897032625042e-06,-2.658932498889044e-05,0.0017291877884417,0.2924824357032776,-9.739350318908691,-0.0052976906299591
1.978999376296997,-0.0017356002936139,-2.658932498889044e-05,-1.6141464584507048e-05,0.2927028238773346,-9.738624572753906,0.0146978795528411
1.9840106964111328,9.72897032625042e-06,-2.658932498889044e-05,-1.6141464584507048e-05,0.2723954617977142,-9.720422744750977,-0.0253201723098754
1.9890215396881104,9.72897032625042e-06,-2.658932498889044e-05,0.0017291877884417,0.2925665080547333,-9.75861358642578,0.0142982006072998
1.994032621383667,-0.0017356002936139,-2.658932498889044e-05,-1.6141464584507048e-05,0.2924824357032776,-9.739350318908691,-0.0052976906299591
1.99904465675354,9.72897032625042e-06,-2.658932498889044e-05,0.0017291877884417,0.2924824357032776,-9.739350318908691,-0.0052976906299591
2.004056453704834,9.72897032625042e-06,-2.658932498889044e-05,0.0017291877884417,0.3026202321052551,-9.719193458557127,-0.0046847164630889
2.0090677738189697,9.72897032625042e-06,0.0017187398625537,0.0017291877884417,0.3023476004600525,-9.75917148590088,-0.0054840743541717
2.0140793323516846,9.72897032625042e-06,0.0052093984559178,-1.6141464584507048e-05,0.3030610084533691,-9.717741012573242,0.0353064835071563
2.0190911293029785,9.72897032625042e-06,-2.658932498889044e-05,-1.6141464584507048e-05,0.2929232120513916,-9.737897872924805,0.0346935093402862
2.0241024494171143,9.72897032625042e-06,0.0052093984559178,-1.6141464584507048e-05,0.2724795341491699,-9.73968505859375,-0.0057242810726165
2.029114246368408,0.0017550581833347,-2.658932498889044e-05,-1.6141464584507048e-05,0.2928391396999359,-9.718635559082031,0.0150975584983825
2.034126043319702,9.72897032625042e-06,0.0034640692174434,0.0034745170269161,0.2729203104972839,-9.738232612609863,0.0342669188976287
2.039137363433838,9.72897032625042e-06,0.0017187398625537,0.0052198460325598,0.3021272122859955,-9.75989818572998,-0.025479644536972
2.0441489219665527,-0.0052262586541473,0.0017187398625537,-1.6141464584507048e-05,0.2930595278739929,-9.71790885925293,0.0350931882858276
2.0491607189178467,9.72897032625042e-06,0.0034640692174434,0.0017291877884417,0.2725636065006256,-9.75894832611084,0.0138716101646423
2.054171323776245,0.0017550581833347,-2.658932498889044e-05,-1.6141464584507048e-05,0.3022112846374511,-9.779160499572754,-0.0058837532997131
2.059182643890381,9.72897032625042e-06,-2.658932498889044e-05,-0.0017614706885069,0.2923983633518219,-9.720088005065918,-0.024893581867218
2.064194679260254,9.72897032625042e-06,0.0052093984559178,0.0052198460325598,0.3030610084533691,-9.717741012573242,0.0353064835071563
2.0692059993743896,-0.0017356002936139,-2.658932498889044e-05,-1.6141464584507048e-05,0.2928391396999359,-9.718635559082031,0.0150975584983825
2.0742180347442627,9.72897032625042e-06,0.0017187398625537,0.0034745170269161,0.2727839946746826,-9.758221626281738,0.0338672399520874
2.0792295932769775,9.72897032625042e-06,-2.658932498889044e-05,0.0017291877884417,0.3027043044567108,-9.73845672607422,0.0149111747741699
2.0842409133911133,9.72897032625042e-06,0.0017187398625537,0.0017291877884417,0.3023476004600525,-9.75917148590088,-0.0054840743541717
2.0892527103424072,-0.0017356002936139,-2.658932498889044e-05,-1.6141464584507048e-05,0.2926505804061889,-9.777875900268556,0.0338941514492034
2.094264507293701,9.72897032625042e-06,0.0017187398625537,-1.6141464584507048e-05,0.3224868178367615,-9.738846778869627,-0.0046578049659729
2.099275827407837,9.72897032625042e-06,0.0034640692174434,0.0017291877884417,0.2726158499717712,-9.719696044921877,-0.0053246021270751
2.1042866706848145,-0.0017356002936139,-0.0017719186143949,-1.6141464584507048e-05,0.2929754555225372,-9.698646545410156,0.0154972374439239
2.1092984676361084,9.72897032625042e-06,0.0052093984559178,0.0034745170269161,0.2927028238773346,-9.738624572753906,0.0146978795528411
2.114309787750244,-0.0017356002936139,-2.658932498889044e-05,-1.6141464584507048e-05,0.3027043044567108,-9.73845672607422,0.0149111747741699
2.119321584701538,9.72897032625042e-06,0.0017187398625537,-1.6141464584507048e-05,0.2927028238773346,-9.738624572753906,0.0146978795528411
2.124333143234253,9.72897032625042e-06,-2.658932498889044e-05,0.0017291877884417,0.3022112846374511,-9.779160499572754,-0.0058837532997131
2.129344940185547,9.72897032625042e-06,0.0017187398625537,0.0034745170269161,0.2927028238773346,-9.738624572753906,0.0146978795528411
2.1343564987182617,9.72897032625042e-06,-2.658932498889044e-05,-1.6141464584507048e-05,0.2924824357032776,-9.739350318908691,-0.0052976906299591
2.1393680572509766,9.72897032625042e-06,0.0017187398625537,-1.6141464584507048e-05,0.2933321595191955,-9.67793083190918,0.035892516374588
2.1443798542022705,9.72897032625042e-06,0.0017187398625537,0.0017291877884417,0.3027565479278564,-9.699204444885254,-0.0042850375175476
2.1493916511535645,9.72897032625042e-06,0.0017187398625537,-1.6141464584507048e-05,0.2923983633518219,-9.720088005065918,-0.024893581867218
2.1544034481048584,0.0017550581833347,-2.658932498889044e-05,0.0017291877884417,0.3024316728115082,-9.778434753417969,0.0141118168830871
2.159414768218994,9.72897032625042e-06,0.0017187398625537,0.0034745170269161,0.2924301922321319,-9.778602600097656,0.0138985216617584
2.164426565170288,9.72897032625042e-06,0.0034640692174434,0.0052198460325598,0.2722069025039673,-9.7796630859375,-0.0065236389636993
2.1694371700286865,0.0017550581833347,0.0052093984559178,-0.0035067999269813,0.3028406202793121,-9.718467712402344,0.0153108537197113
2.1744489669799805,9.72897032625042e-06,0.0034640692174434,0.0034745170269161,0.3029769361019134,-9.698478698730469,0.0157105326652526
2.1794607639312744,0.0017550581833347,-2.658932498889044e-05,-1.6141464584507048e-05,0.2928391396999359,-9.718635559082031,0.0150975584983825
2.184471845626831,9.72897032625042e-06,-2.658932498889044e-05,0.0017291877884417,0.2926187515258789,-9.719361305236816,-0.0048980116844177
2.189483880996704,9.72897032625042e-06,0.0017187398625537,0.0052198460325598,0.3025157451629638,-9.797697067260742,0.0337077677249908
2.194495439529419,-0.0017356002936139,0.0034640692174434,-1.6141464584507048e-05,0.2921257317066192,-9.760066032409668,-0.0256929397583007
2.199507236480713,9.72897032625042e-06,-2.658932498889044e-05,-1.6141464584507048e-05,0.3025679886341095,-9.758445739746094,0.0145114958286285
2.204519033432007,9.72897032625042e-06,0.0034640692174434,0.0017291877884417,0.2929232120513916,-9.737897872924805,0.0346935093402862
2.209530830383301,0.0035003875382244,-2.658932498889044e-05,-1.6141464584507048e-05,0.2730566263198852,-9.718243598937988,0.0346665978431701
2.2145423889160156,9.72897032625042e-06,0.0017187398625537,-1.6141464584507048e-05,0.3030610084533691,-9.717741012573242,0.0353064835071563
2.219553232192993,9.72897032625042e-06,0.0034640692174434,0.0034745170269161,0.3226231336593628,-9.718857765197754,-0.0042581260204315
2.2245659828186035,9.72897032625042e-06,0.0052093984559178,0.0017291877884417,0.3026202321052551,-9.719193458557127,-0.0046847164630889
2.229576587677002,0.0017550581833347,-2.658932498889044e-05,0.0034745170269161,0.2922098040580749,-9.77932834625244,-0.0060970485210418
2.234588384628296,9.72897032625042e-06,0.0052093984559178,0.0017291877884417,0.3222141861915588,-9.77882480621338,-0.0054571628570556
2.23960018157959,-0.003480929415673,-2.658932498889044e-05,0.0017291877884417,0.3029246926307678,-9.737730026245115,0.0349068045616149
2.2446117401123047,9.72897032625042e-06,0.0052093984559178,-1.6141464584507048e-05,0.3028406202793121,-9.718467712402344,0.0153108537197113
2.2496235370635986,9.72897032625042e-06,0.0017187398625537,-1.6141464584507048e-05,0.2926187515258789,-9.719361305236816,-0.0048980116844177
2.2546353340148926,-0.0017356002936139,-2.658932498889044e-05,0.0034745170269161,0.2930595278739929,-9.71790885925293,0.0350931882858276
2.2596468925476074,9.72897032625042e-06,-2.658932498889044e-05,0.0017291877884417,0.2932799160480499,-9.717183113098145,0.0550887286663055
2.2646586894989014,9.72897032625042e-06,-2.658932498889044e-05,-1.6141464584507048e-05,0.2924301922321319,-9.778602600097656,0.0138985216617584
2.2696704864501953,9.72897032625042e-06,0.0017187398625537,0.0034745170269161,0.3024316728115082,-9.778434753417969,0.0141118168830871
2.27468204498291,9.72897032625042e-06,0.0034640692174434,0.0034745170269161,0.2723432183265686,-9.759674072265623,-0.0061239600181579
2.279693841934204,9.72897032625042e-06,-2.658932498889044e-05,-1.6141464584507048e-05,0.2927028238773346,-9.738624572753906,0.0146978795528411
2.284705638885498,0.0017550581833347,0.0034640692174434,0.0017291877884417,0.2726158499717712,-9.719696044921877,-0.0053246021270751
2.2897162437438965,9.72897032625042e-06,-2.658932498889044e-05,0.0017291877884417,0.2927028238773346,-9.738624572753906,0.0146978795528411
2.2947280406951904,9.72897032625042e-06,-2.658932498889044e-05,0.0034745170269161,0.3030610084533691,-9.717741012573242,0.0353064835071563
2.2997398376464844,-0.0017356002936139,0.0017187398625537,-1.6141464584507048e-05,0.2730043828487396,-9.757495880126951,0.0538627803325653
2.3047516345977783,-0.0017356002936139,0.0052093984559178,0.0034745170269161,0.2924301922321319,-9.778602600097656,0.0138985216617584
2.309763193130493,9.72897032625042e-06,0.0017187398625537,-1.6141464584507048e-05,0.2927028238773346,-9.738624572753906,0.0146978795528411
2.314775228500366,0.0035003875382244,0.0034640692174434,0.0017291877884417,0.2929232120513916,-9.737897872924805,0.0346935093402862
2.319786787033081,9.72897032625042e-06,0.0017187398625537,-1.6141464584507048e-05,0.2726999223232269,-9.738959312438965,0.0142712891101837
2.324798583984375,9.72897032625042e-06,0.0034640692174434,0.0017291877884417,0.2930595278739929,-9.71790885925293,0.0350931882858276
2.329810380935669,9.72897032625042e-06,0.0052093984559178,-1.6141464584507048e-05,0.3026202321052551,-9.719193458557127,-0.0046847164630889
2.334821939468384,9.72897032625042e-06,0.0017187398625537,0.0017291877884417,0.3028406202793121,-9.718467712402344,0.0153108537197113
2.3398337364196777,9.72897032625042e-06,0.0017187398625537,0.0034745170269161,0.2922098040580749,-9.77932834625244,-0.0060970485210418
2.3448448181152344,9.72897032625042e-06,0.0034640692174434,-1.6141464584507048e-05,0.2927868962287903,-9.75788688659668,0.0342938303947448
2.349856376647949,-0.0017356002936139,-2.658932498889044e-05,-0.0017614706885069,0.2927028238773346,-9.738624572753906,0.0146978795528411
2.354868173599243,9.72897032625042e-06,0.0034640692174434,0.0017291877884417,0.2928391396999359,-9.718635559082031,0.0150975584983825
2.359879970550537,-0.0017356002936139,0.0034640692174434,0.0052198460325598,0.2923983633518219,-9.720088005065918,-0.024893581867218
2.364891529083252,9.72897032625042e-06,0.0034640692174434,-1.6141464584507048e-05,0.3028406202793121,-9.718467712402344,0.0153108537197113
2.369903564453125,9.72897032625042e-06,-2.658932498889044e-05,-1.6141464584507048e-05,0.2732770144939422,-9.717517852783203,0.054662138223648
2.374915361404419,9.72897032625042e-06,-2.658932498889044e-05,0.0034745170269161,0.2722591459751129,-9.740411758422852,-0.0257198512554168
2.379926919937134,-0.0017356002936139,0.0034640692174434,0.0034745170269161,0.2919894158840179,-9.780055046081545,-0.0260926187038421
2.384938955307007,-0.0017356002936139,-2.658932498889044e-05,-1.6141464584507048e-05,0.2922098040580749,-9.77932834625244,-0.0060970485210418
2.389950752258301,0.0017550581833347,-2.658932498889044e-05,0.0034745170269161,0.3028406202793121,-9.718467712402344,0.0153108537197113
2.3949623107910156,9.72897032625042e-06,0.0017187398625537,-1.6141464584507048e-05,0.3028406202793121,-9.718467712402344,0.0153108537197113
2.3999743461608887,0.0017550581833347,0.0017187398625537,-1.6141464584507048e-05,0.2928391396999359,-9.718635559082031,0.0150975584983825
2.40498423576355,9.72897032625042e-06,0.0034640692174434,0.0017291877884417,0.2923461198806762,-9.759339332580566,-0.0056973695755004
2.4099936485290527,9.72897032625042e-06,-2.658932498889044e-05,-1.6141464584507048e-05,0.3023476004600525,-9.75917148590088,-0.0054840743541717
2.4150028228759766,0.0052457167766988,0.0017187398625537,0.0017291877884417,0.2524766325950622,-9.740020751953123,-0.006150871515274
2.4200124740600586,-0.0017356002936139,0.0052093984559178,-1.6141464584507048e-05,0.2928391396999359,-9.718635559082031,0.0150975584983825
2.4250216484069824,9.72897032625042e-06,0.0017187398625537,0.0034745170269161,0.2534945011138916,-9.717126846313477,0.0742311477661132
2.4300312995910645,9.72897032625042e-06,0.0017187398625537,0.0017291877884417,0.3029769361019134,-9.698478698730469,0.0157105326652526
2.4350404739379883,9.72897032625042e-06,-2.658932498889044e-05,-1.6141464584507048e-05,0.3025361597537994,-9.699931144714355,-0.0242806077003479
2.4400501251220703,-0.0017356002936139,-2.658932498889044e-05,0.0017291877884417,0.3027043044567108,-9.73845672607422,0.0149111747741699
2.445059299468994,-0.0017356002936139,-2.658932498889044e-05,-1.6141464584507048e-05,0.2731406986713409,-9.737506866455078,0.0542624592781066
2.450068712234497,0.0017550581833347,0.0052093984559178,-1.6141464584507048e-05,0.3024316728115082,-9.778434753417969,0.0141118168830871
2.455078125,-0.0017356002936139,0.0017187398625537,-1.6141464584507048e-05,0.2924301922321319,-9.778602600097656,0.0138985216617584
2.460087299346924,9.72897032625042e-06,0.0017187398625537,0.0034745170269161,0.3024839162826538,-9.739182472229004,-0.0050843954086303
2.4650959968566895,9.72897032625042e-06,-2.658932498889044e-05,-1.6141464584507048e-05,0.3026202321052551,-9.719193458557127,-0.0046847164630889
2.4701051712036133,9.72897032625042e-06,-2.658932498889044e-05,0.0017291877884417,0.2928391396999359,-9.718635559082031,0.0150975584983825
2.4751148223876953,9.72897032625042e-06,0.0034640692174434,-1.6141464584507048e-05,0.2529174089431762,-9.738568305969238,0.0338403284549713
2.480123996734619,9.72897032625042e-06,-2.658932498889044e-05,-1.6141464584507048e-05,0.2924824357032776,-9.739350318908691,-0.0052976906299591
2.485133647918701,-0.0017356002936139,0.0017187398625537,-1.6141464584507048e-05,0.3027043044567108,-9.73845672607422,0.0149111747741699
2.490142822265625,9.72897032625042e-06,-2.658932498889044e-05,-0.0017614706885069,0.2726999223232269,-9.738959312438965,0.0142712891101837
2.495151996612549,0.0017550581833347,-2.658932498889044e-05,0.0017291877884417,0.2929232120513916,-9.737897872924805,0.0346935093402862
2.500161647796631,-0.0017356002936139,-2.658932498889044e-05,-1.6141464584507048e-05,0.2928391396999359,-9.718635559082031,0.0150975584983825
2.5051708221435547,0.0017550581833347,-2.658932498889044e-05,0.0034745170269161,0.2926187515258789,-9.719361305236816,-0.0048980116844177
2.5101804733276367,9.72897032625042e-06,-2.658932498889044e-05,-0.0017614706885069,0.2926187515258789,-9.719361305236816,-0.0048980116844177
2.5151896476745605,9.72897032625042e-06,-2.658932498889044e-05,0.0017291877884417,0.2731929421424866,-9.698254585266112,0.0350662767887115
2.5201990604400635,0.0017550581833347,-2.658932498889044e-05,0.0017291877884417,0.2926505804061889,-9.777875900268556,0.0338941514492034
2.5252084732055664,9.72897032625042e-06,0.0052093984559178,-1.6141464584507048e-05,0.2722591459751129,-9.740411758422852,-0.0257198512554168
2.530216693878174,9.72897032625042e-06,-2.658932498889044e-05,0.0069651752710342,0.2927028238773346,-9.738624572753906,0.0146978795528411
2.535226345062256,9.72897032625042e-06,0.0034640692174434,-1.6141464584507048e-05,0.3229275941848755,-9.737394332885742,0.0353333950042724
2.5402355194091797,9.72897032625042e-06,0.0069547276943922,0.0034745170269161,0.2924824357032776,-9.739350318908691,-0.0052976906299591
2.5452449321746826,-0.0017356002936139,-2.658932498889044e-05,-0.0035067999269813,0.2927868962287903,-9.75788688659668,0.0342938303947448
2.5502543449401855,0.0017550581833347,-2.658932498889044e-05,0.0017291877884417,0.2929232120513916,-9.737897872924805,0.0346935093402862
2.5552637577056885,9.72897032625042e-06,0.0017187398625537,0.0034745170269161,0.3029246926307678,-9.737730026245115,0.0349068045616149
2.5602731704711914,9.72897032625042e-06,-2.658932498889044e-05,-1.6141464584507048e-05,0.3022635281085968,-9.739909172058104,-0.0250799655914306
2.5652825832366943,9.72897032625042e-06,-2.658932498889044e-05,-1.6141464584507048e-05,0.2927868962287903,-9.75788688659668,0.0342938303947448
2.570291757583618,9.72897032625042e-06,0.0017187398625537,0.0017291877884417,0.3027043044567108,-9.73845672607422,0.0149111747741699
2.575301170349121,-0.0017356002936139,-2.658932498889044e-05,-1.6141464584507048e-05,0.3029246926307678,-9.737730026245115,0.0349068045616149
2.5803096294403076,-0.0017356002936139,0.0017187398625537,-1.6141464584507048e-05,0.3022635281085968,-9.739909172058104,-0.0250799655914306
2.585319995880127,-0.0017356002936139,0.0052093984559178,0.0017291877884417,0.2724795341491699,-9.73968505859375,-0.0057242810726165
2.5903284549713135,-0.0017356002936139,-2.658932498889044e-05,-1.6141464584507048e-05,0.2924824357032776,-9.739350318908691,-0.0052976906299591
2.5953376293182373,9.72897032625042e-06,0.0017187398625537,0.0034745170269161,0.2924824357032776,-9.739350318908691,-0.0052976906299591
2.6003470420837402,-0.0017356002936139,0.0034640692174434,-0.0017614706885069,0.3027043044567108,-9.73845672607422,0.0149111747741699
2.605356454849243,9.72897032625042e-06,-2.658932498889044e-05,0.0034745170269161,0.2929232120513916,-9.737897872924805,0.0346935093402862
2.610365867614746,0.0035003875382244,-2.658932498889044e-05,-1.6141464584507048e-05,0.2932799160480499,-9.717183113098145,0.0550887286663055
2.61537504196167,-0.0017356002936139,-0.0017719186143949,-1.6141464584507048e-05,0.3026202321052551,-9.719193458557127,-0.0046847164630889
2.620384454727173,9.72897032625042e-06,0.0017187398625537,0.0017291877884417,0.3028406202793121,-9.718467712402344,0.0153108537197113
2.625394105911255,0.0017550581833347,-2.658932498889044e-05,-1.6141464584507048e-05,0.3028406202793121,-9.718467712402344,0.0153108537197113
2.6304030418395996,9.72897032625042e-06,0.0017187398625537,-1.6141464584507048e-05,0.2726999223232269,-9.738959312438965,0.0142712891101837
2.6354126930236816,9.72897032625042e-06,-2.658932498889044e-05,0.0017291877884417,0.2924301922321319,-9.778602600097656,0.0138985216617584
2.6404221057891846,9.72897032625042e-06,-2.658932498889044e-05,0.0034745170269161,0.3027883768081665,-9.757719039916992,0.0345071256160736
2.645430326461792,0.0017550581833347,0.0034640692174434,0.0017291877884417,0.3226549625396728,-9.777372360229492,0.0345340371131897
2.650439977645874,9.72897032625042e-06,-2.658932498889044e-05,-1.6141464584507048e-05,0.3028406202793121,-9.718467712402344,0.0153108537197113
2.655449151992798,0.0017550581833347,-2.658932498889044e-05,-1.6141464584507048e-05,0.2929232120513916,-9.737897872924805,0.0346935093402862
2.660458564758301,0.0035003875382244,0.0017187398625537,0.0034745170269161,0.3024839162826538,-9.739182472229004,-0.0050843954086303
2.6654679775238037,-0.0017356002936139,-2.658932498889044e-05,-1.6141464584507048e-05,0.2926187515258789,-9.719361305236816,-0.0048980116844177
2.6704776287078857,-0.0017356002936139,-2.658932498889044e-05,-0.0017614706885069,0.3025679886341095,-9.758445739746094,0.0145114958286285
2.6754865646362305,9.72897032625042e-06,0.0034640692174434,0.0017291877884417,0.2924824357032776,-9.739350318908691,-0.0052976906299591
2.6804964542388916,9.72897032625042e-06,-2.658932498889044e-05,0.0052198460325598,0.3027043044567108,-9.73845672607422,0.0149111747741699
2.6855056285858154,9.72897032625042e-06,0.0052093984559178,0.0034745170269161,0.2929232120513916,-9.737897872924805,0.0346935093402862
2.6905148029327393,9.72897032625042e-06,-2.658932498889044e-05,0.0034745170269161,0.2528333365917206,-9.719305992126465,0.0142443776130676
2.6955244541168213,9.72897032625042e-06,0.0017187398625537,-1.6141464584507048e-05,0.2929754555225372,-9.698646545410156,0.0154972374439239
2.700533628463745,9.72897032625042e-06,-2.658932498889044e-05,-1.6141464584507048e-05,0.2935003042221069,-9.716456413269045,0.0750843286514282
2.705543041229248,9.72897032625042e-06,0.0017187398625537,0.0017291877884417,0.2927868962287903,-9.75788688659668,0.0342938303947448
2.7105510234832764,9.72897032625042e-06,0.0017187398625537,-1.6141464584507048e-05,0.2726999223232269,-9.738959312438965,0.0142712891101837
2.7155606746673584,0.0017550581833347,0.0017187398625537,-1.6141464584507048e-05,0.3024316728115082,-9.778434753417969,0.0141118168830871
2.7205698490142822,9.72897032625042e-06,-2.658932498889044e-05,-1.6141464584507048e-05,0.2924824357032776,-9.739350318908691,-0.0052976906299591
2.725579023361206,9.72897032625042e-06,0.0052093984559178,-1.6141464584507048e-05,0.3028406202793121,-9.718467712402344,0.0153108537197113
2.730588912963867,9.72897032625042e-06,0.0052093984559178,0.0034745170269161,0.3030610084533691,-9.717741012573242,0.0353064835071563
2.735597848892212,9.72897032625042e-06,-2.658932498889044e-05,0.0017291877884417,0.2730566263198852,-9.718243598937988,0.0346665978431701
2.740607500076294,9.72897032625042e-06,0.0017187398625537,-0.0017614706885069,0.3024839162826538,-9.739182472229004,-0.0050843954086303
2.745616912841797,0.0017550581833347,0.0052093984559178,-1.6141464584507048e-05,0.3024839162826538,-9.739182472229004,-0.0050843954086303
2.7506263256073,0.0017550581833347,-2.658932498889044e-05,0.0017291877884417,0.2925142645835876,-9.79786491394043,0.0334944725036621
2.7556354999542236,9.72897032625042e-06,0.0017187398625537,-1.6141464584507048e-05,0.2925665080547333,-9.75861358642578,0.0142982006072998
2.7606449127197266,0.0017550581833347,0.0017187398625537,0.0034745170269161,0.3229275941848755,-9.737394332885742,0.0353333950042724
2.7656543254852295,-0.0017356002936139,-2.658932498889044e-05,0.0017291877884417,0.2926187515258789,-9.719361305236816,-0.0048980116844177
2.770662546157837,9.72897032625042e-06,0.0017187398625537,-1.6141464584507048e-05,0.3030610084533691,-9.717741012573242,0.0353064835071563
2.775672435760498,9.72897032625042e-06,-2.658932498889044e-05,0.0017291877884417,0.2522562444210052,-9.740747451782228,-0.0261464416980743
2.7806813716888428,9.72897032625042e-06,0.0017187398625537,0.0052198460325598,0.3023476004600525,-9.75917148590088,-0.0054840743541717
2.7856907844543457,0.0017550581833347,-0.0017719186143949,0.0017291877884417,0.2732770144939422,-9.717517852783203,0.054662138223648
2.7907004356384277,9.72897032625042e-06,0.0017187398625537,-1.6141464584507048e-05,0.2923461198806762,-9.759339332580566,-0.0056973695755004
2.7957093715667725,9.72897032625042e-06,0.0034640692174434,-1.6141464584507048e-05,0.2926187515258789,-9.719361305236816,-0.0048980116844177
2.8007187843322754,9.72897032625042e-06,-2.658932498889044e-05,0.0034745170269161,0.2927868962287903,-9.75788688659668,0.0342938303947448
2.8057284355163574,9.72897032625042e-06,0.0017187398625537,-1.6141464584507048e-05,0.2921779751777649,-9.720813751220703,-0.0448891669511795
2.8107376098632812,0.0017550581833347,0.0017187398625537,0.0034745170269161,0.3028406202793121,-9.718467712402344,0.0153108537197113
2.815747022628784,-0.0017356002936139,0.0052093984559178,-1.6141464584507048e-05,0.2726999223232269,-9.738959312438965,0.0142712891101837
2.820756435394287,9.72897032625042e-06,-2.658932498889044e-05,-1.6141464584507048e-05,0.2923461198806762,-9.759339332580566,-0.0056973695755004
2.825765609741211,9.72897032625042e-06,-2.658932498889044e-05,0.0017291877884417,0.2919894158840179,-9.780055046081545,-0.0260926187038421
2.8307738304138184,0.0017550581833347,0.0034640692174434,-1.6141464584507048e-05,0.2927028238773346,-9.738624572753906,0.0146978795528411
2.8357834815979004,9.72897032625042e-06,-2.658932498889044e-05,-1.6141464584507048e-05,0.3027043044567108,-9.73845672607422,0.0149111747741699
2.840792655944824,9.72897032625042e-06,0.0034640692174434,0.0034745170269161,0.2726999223232269,-9.738959312438965,0.0142712891101837
2.8458023071289062,9.72897032625042e-06,-2.658932498889044e-05,0.0034745170269161,0.2722591459751129,-9.740411758422852,-0.0257198512554168
2.85081148147583,9.72897032625042e-06,0.0017187398625537,-1.6141464584507048e-05,0.3026520609855652,-9.777708053588867,0.0341074466705322
2.855820894241333,9.72897032625042e-06,0.0034640692174434,-1.6141464584507048e-05,0.2725636065006256,-9.75894832611084,0.0138716101646423
2.860830307006836,9.72897032625042e-06,-2.658932498889044e-05,-1.6141464584507048e-05,0.2925665080547333,-9.75861358642578,0.0142982006072998
2.865839719772339,0.0017550581833347,-2.658932498889044e-05,0.0017291877884417,0.3026202321052551,-9.719193458557127,-0.0046847164630889
2.8708488941192627,0.0035003875382244,0.0017187398625537,-1.6141464584507048e-05,0.2926187515258789,-9.719361305236816,-0.0048980116844177
2.8758583068847656,-0.0017356002936139,0.0034640692174434,0.0017291877884417,0.2727521657943725,-9.69970703125,-0.0049249231815338
2.8808677196502686,9.72897032625042e-06,-2.658932498889044e-05,-1.6141464584507048e-05,0.2921779751777649,-9.720813751220703,-0.0448891669511795
2.885875940322876,-0.0017356002936139,0.0034640692174434,-1.6141464584507048e-05,0.2729203104972839,-9.738232612609863,0.0342669188976287
2.890885353088379,9.72897032625042e-06,0.0017187398625537,0.0017291877884417,0.2927868962287903,-9.75788688659668,0.0342938303947448
2.895894765853882,9.72897032625042e-06,-2.658932498889044e-05,0.0017291877884417,0.3025679886341095,-9.758445739746094,0.0145114958286285
2.9009041786193848,0.0017550581833347,0.0017187398625537,0.0017291877884417,0.2929232120513916,-9.737897872924805,0.0346935093402862
2.9059133529663086,-0.003480929415673,0.0017187398625537,-0.0035067999269813,0.3032813966274261,-9.717015266418455,0.0553020238876342
2.9109227657318115,-0.0017356002936139,0.0017187398625537,0.0017291877884417,0.2929754555225372,-9.698646545410156,0.0154972374439239
2.9159321784973145,9.72897032625042e-06,-2.658932498889044e-05,-1.6141464584507048e-05,0.2929754555225372,-9.698646545410156,0.0154972374439239
2.9209413528442383,9.72897032625042e-06,0.0034640692174434,0.0034745170269161,0.2723432183265686,-9.759674072265623,-0.0061239600181579
2.9259512424468994,9.72897032625042e-06,0.0034640692174434,-1.6141464584507048e-05,0.2928709685802459,-9.77715015411377,0.0538896918296813
2.930960178375244,9.72897032625042e-06,0.0017187398625537,0.0017291877884417,0.2924301922321319,-9.778602600097656,0.0138985216617584
2.935969591140747,9.72897032625042e-06,0.0017187398625537,0.0017291877884417,0.3029246926307678,-9.737730026245115,0.0349068045616149
2.940979242324829,-0.0017356002936139,-0.0017719186143949,0.0052198460325598,0.3027043044567108,-9.73845672607422,0.0149111747741699
2.945988178253174,9.72897032625042e-06,0.0017187398625537,0.0034745170269161,0.2727839946746826,-9.758221626281738,0.0338672399520874
2.9509966373443604,9.72897032625042e-06,-2.658932498889044e-05,-1.6141464584507048e-05,0.2732770144939422,-9.717517852783203,0.054662138223648
2.9560060501098633,0.0017550581833347,0.0069547276943922,-1.6141464584507048e-05,0.2925665080547333,-9.75861358642578,0.0142982006072998
2.961015462875366,9.72897032625042e-06,-2.658932498889044e-05,-1.6141464584507048e-05,0.2930595278739929,-9.71790885925293,0.0350931882858276
2.96602463722229,9.72897032625042e-06,-2.658932498889044e-05,0.0034745170269161,0.3221301138401031,-9.759562492370604,-0.0250530540943145
2.971034288406372,9.72897032625042e-06,0.0052093984559178,0.0052198460325598,0.2926187515258789,-9.719361305236816,-0.0048980116844177
2.976043462753296,9.72897032625042e-06,0.0017187398625537,-1.6141464584507048e-05,0.3023476004600525,-9.75917148590088,-0.0054840743541717
2.9810526371002197,9.72897032625042e-06,0.0017187398625537,0.0017291877884417,0.2932799160480499,-9.717183113098145,0.0550887286663055
2.9860620498657227,0.0017550581833347,-2.658932498889044e-05,0.0017291877884417,0.2929232120513916,-9.737897872924805,0.0346935093402862
2.9910714626312256,-0.0017356002936139,0.0034640692174434,-1.6141464584507048e-05,0.2924824357032776,-9.739350318908691,-0.0052976906299591
2.9960806369781494,9.72897032625042e-06,0.0017187398625537,0.0052198460325598,0.2927868962287903,-9.75788688659668,0.0342938303947448
3.0010900497436523,9.72897032625042e-06,0.0052093984559178,-1.6141464584507048e-05,0.3231479823589325,-9.736668586730955,0.0553289353847503
3.006098747253418,9.72897032625042e-06,0.0034640692174434,0.0017291877884417,0.3023476004600525,-9.75917148590088,-0.0054840743541717
3.011107921600342,0.0017550581833347,0.0034640692174434,-1.6141464584507048e-05,0.3027043044567108,-9.73845672607422,0.0149111747741699
3.0161170959472656,9.72897032625042e-06,0.0017187398625537,-1.6141464584507048e-05,0.3024316728115082,-9.778434753417969,0.0141118168830871
3.0211265087127686,-0.0017356002936139,-2.658932498889044e-05,0.0017291877884417,0.2923983633518219,-9.720088005065918,-0.024893581867218
3.0261359214782715,9.72897032625042e-06,0.0017187398625537,0.0034745170269161,0.2927028238773346,-9.738624572753906,0.0146978795528411
3.0311453342437744,-0.0017356002936139,0.0017187398625537,0.0017291877884417,0.3027043044567108,-9.73845672607422,0.0149111747741699
3.0361545085906982,-0.0017356002936139,-2.658932498889044e-05,-1.6141464584507048e-05,0.2724795341491699,-9.73968505859375,-0.0057242810726165
3.0411641597747803,9.72897032625042e-06,-2.658932498889044e-05,0.0034745170269161,0.2927868962287903,-9.75788688659668,0.0342938303947448
3.046173334121704,9.72897032625042e-06,0.0034640692174434,0.0017291877884417,0.2929232120513916,-9.737897872924805,0.0346935093402862
3.051182508468628,9.72897032625042e-06,0.0034640692174434,-1.6141464584507048e-05,0.2930595278739929,-9.71790885925293,0.0350931882858276
3.05619215965271,9.72897032625042e-06,0.0052093984559178,0.0034745170269161,0.2722591459751129,-9.740411758422852,-0.0257198512554168
3.061201333999634,0.0017550581833347,0.0034640692174434,0.0017291877884417,0.2928391396999359,-9.718635559082031,0.0150975584983825
3.0662107467651367,0.0017550581833347,0.0017187398625537,0.0017291877884417,0.2929232120513916,-9.737897872924805,0.0346935093402862
3.071218967437744,9.72897032625042e-06,-2.658932498889044e-05,-1.6141464584507048e-05,0.2931958436965942,-9.697919845581056,0.035492867231369
3.076228618621826,9.72897032625042e-06,0.0034640692174434,0.0017291877884417,0.2927028238773346,-9.738624572753906,0.0146978795528411
3.081238031387329,9.72897032625042e-06,-0.0017719186143949,-1.6141464584507048e-05,0.3023476004600525,-9.75917148590088,-0.0054840743541717
3.086246967315674,9.72897032625042e-06,-2.658932498889044e-05,0.0017291877884417,0.2923461198806762,-9.759339332580566,-0.0056973695755004
3.0912563800811768,0.0017550581833347,0.0017187398625537,-1.6141464584507048e-05,0.3024839162826538,-9.739182472229004,-0.0050843954086303
3.096266031265259,9.72897032625042e-06,0.0017187398625537,0.0017291877884417,0.2924824357032776,-9.739350318908691,-0.0052976906299591
3.1012752056121826,9.72897032625042e-06,0.0017187398625537,0.0034745170269161,0.3027043044567108,-9.73845672607422,0.0149111747741699
3.1062843799591064,9.72897032625042e-06,-2.658932498889044e-05,-1.6141464584507048e-05,0.2725636065006256,-9.75894832611084,0.0138716101646423
3.1112940311431885,9.72897032625042e-06,-2.658932498889044e-05,0.0052198460325598,0.2728362381458282,-9.71897029876709,0.014670968055725
3.1163032054901123,-0.0017356002936139,-2.658932498889044e-05,-1.6141464584507048e-05,0.3024839162826538,-9.739182472229004,-0.0050843954086303
3.1213126182556152,9.72897032625042e-06,0.0017187398625537,0.0034745170269161,0.3024839162826538,-9.739182472229004,-0.0050843954086303
3.126322031021118,0.0035003875382244,0.0034640692174434,-1.6141464584507048e-05,0.3433712720870971,-9.735607147216797,0.0757511258125305
3.1313302516937256,-0.0017356002936139,-2.658932498889044e-05,-1.6141464584507048e-05,0.2927028238773346,-9.738624572753906,0.0146978795528411
3.1363394260406494,9.72897032625042e-06,0.0017187398625537,-1.6141464584507048e-05,0.2930595278739929,-9.71790885925293,0.0350931882858276
3.1413488388061523,-0.003480929415673,-2.658932498889044e-05,0.0034745170269161,0.2924824357032776,-9.739350318908691,-0.0052976906299591
3.1463582515716553,0.0017550581833347,-2.658932498889044e-05,-1.6141464584507048e-05,0.2928391396999359,-9.718635559082031,0.0150975584983825
3.151367425918579,-0.0017356002936139,-2.658932498889044e-05,-1.6141464584507048e-05,0.2931436002254486,-9.73717212677002,0.0546890497207641
3.156377077102661,9.72897032625042e-06,0.0034640692174434,0.0017291877884417,0.3027043044567108,-9.73845672607422,0.0149111747741699
3.161386251449585,-0.0017356002936139,-2.658932498889044e-05,-1.6141464584507048e-05,0.2923983633518219,-9.720088005065918,-0.024893581867218
3.166395425796509,9.72897032625042e-06,-2.658932498889044e-05,0.0017291877884417,0.2927868962287903,-9.75788688659668,0.0342938303947448
3.171405076980591,9.72897032625042e-06,0.0034640692174434,0.0017291877884417,0.2935003042221069,-9.716456413269045,0.0750843286514282
3.1764142513275146,9.72897032625042e-06,0.0017187398625537,0.0017291877884417,0.3026202321052551,-9.719193458557127,-0.0046847164630889
3.1814234256744385,0.0017550581833347,-2.658932498889044e-05,-1.6141464584507048e-05,0.2929232120513916,-9.737897872924805,0.0346935093402862
3.1864330768585205,9.72897032625042e-06,-2.658932498889044e-05,-1.6141464584507048e-05,0.2722591459751129,-9.740411758422852,-0.0257198512554168
3.1914424896240234,9.72897032625042e-06,0.0034640692174434,0.0034745170269161,0.2923779785633087,-9.817852973937988,0.0330947935581207
3.196450710296631,0.0017550581833347,-2.658932498889044e-05,-1.6141464584507048e-05,0.2929232120513916,-9.737897872924805,0.0346935093402862
3.2014598846435547,9.72897032625042e-06,0.0034640692174434,-1.6141464584507048e-05,0.2927028238773346,-9.738624572753906,0.0146978795528411
3.2064695358276367,9.72897032625042e-06,0.0052093984559178,0.0017291877884417,0.2529696524143219,-9.69931697845459,0.014644056558609
3.2114787101745605,9.72897032625042e-06,0.0034640692174434,0.0017291877884417,0.2932799160480499,-9.717183113098145,0.0550887286663055
3.2164881229400635,9.72897032625042e-06,-2.658932498889044e-05,-1.6141464584507048e-05,0.3024839162826538,-9.739182472229004,-0.0050843954086303
3.2214972972869873,-0.0017356002936139,-2.658932498889044e-05,0.0034745170269161,0.3029246926307678,-9.737730026245115,0.0349068045616149
3.2265069484710693,-0.003480929415673,0.0017187398625537,-1.6141464584507048e-05,0.2930072844028473,-9.757161140441896,0.0542893707752227
3.231516122817993,9.72897032625042e-06,0.0017187398625537,0.0017291877884417,0.2527810931205749,-9.758557319641112,0.0334406495094299
3.236525297164917,9.72897032625042e-06,0.0017187398625537,-1.6141464584507048e-05,0.2730566263198852,-9.718243598937988,0.0346665978431701
3.24153470993042,9.72897032625042e-06,-0.003517247736454,0.0017291877884417,0.3028406202793121,-9.718467712402344,0.0153108537197113
3.246544122695923,0.0017550581833347,-2.658932498889044e-05,0.0017291877884417,0.3027565479278564,-9.699204444885254,-0.0042850375175476
3.251553535461426,9.72897032625042e-06,-0.0017719186143949,-0.0017614706885069,0.3024839162826538,-9.739182472229004,-0.0050843954086303
3.2565627098083496,9.72897032625042e-06,-2.658932498889044e-05,0.0034745170269161,0.3027883768081665,-9.757719039916992,0.0345071256160736
3.261571168899536,9.72897032625042e-06,-2.658932498889044e-05,0.0034745170269161,0.2725636065006256,-9.75894832611084,0.0138716101646423
3.26658034324646,-0.0017356002936139,0.0034640692174434,0.0017291877884417,0.2731406986713409,-9.737506866455078,0.0542624592781066
3.271589756011963,0.0017550581833347,-2.658932498889044e-05,-1.6141464584507048e-05,0.2921257317066192,-9.760066032409668,-0.0256929397583007
3.276599168777466,-0.003480929415673,0.0017187398625537,0.0017291877884417,0.2726999223232269,-9.738959312438965,0.0142712891101837
3.2816083431243896,9.72897032625042e-06,-2.658932498889044e-05,-1.6141464584507048e-05,0.2728362381458282,-9.71897029876709,0.014670968055725
3.2866177558898926,-0.0017356002936139,0.0052093984559178,-1.6141464584507048e-05,0.3027043044567108,-9.73845672607422,0.0149111747741699
3.2916271686553955,0.0017550581833347,0.0034640692174434,0.0017291877884417,0.3027883768081665,-9.757719039916992,0.0345071256160736
3.2966365814208984,9.72897032625042e-06,-2.658932498889044e-05,0.0034745170269161,0.3024316728115082,-9.778434753417969,0.0141118168830871
3.3016457557678223,9.72897032625042e-06,0.0017187398625537,0.0034745170269161,0.3023476004600525,-9.75917148590088,-0.0054840743541717
3.3066539764404297,9.72897032625042e-06,0.0017187398625537,-1.6141464584507048e-05,0.2924824357032776,-9.739350318908691,-0.0052976906299591
3.311664581298828,9.72897032625042e-06,-2.658932498889044e-05,0.0034745170269161,0.3034177124500274,-9.697026252746582,0.0557017028331756
3.3166728019714355,9.72897032625042e-06,0.0017187398625537,0.0034745170269161,0.2929232120513916,-9.737897872924805,0.0346935093402862
3.3216824531555176,9.72897032625042e-06,-2.658932498889044e-05,-1.6141464584507048e-05,0.2926505804061889,-9.777875900268556,0.0338941514492034
3.3266916275024414,9.72897032625042e-06,0.0017187398625537,-1.6141464584507048e-05,0.2726999223232269,-9.738959312438965,0.0142712891101837
3.3317008018493652,9.72897032625042e-06,0.0017187398625537,0.0034745170269161,0.2930595278739929,-9.71790885925293,0.0350931882858276
3.3367104530334473,9.72897032625042e-06,0.0052093984559178,-1.6141464584507048e-05,0.2927028238773346,-9.738624572753906,0.0146978795528411
3.341719627380371,9.72897032625042e-06,0.0052093984559178,-1.6141464584507048e-05,0.2929232120513916,-9.737897872924805,0.0346935093402862
3.346728801727295,-0.0017356002936139,0.0017187398625537,-0.0017614706885069,0.2924301922321319,-9.778602600097656,0.0138985216617584
3.3517379760742188,9.72897032625042e-06,0.0034640692174434,-1.6141464584507048e-05,0.2927028238773346,-9.738624572753906,0.0146978795528411
3.356747627258301,-0.003480929415673,0.0017187398625537,0.0034745170269161,0.2927868962287903,-9.75788688659668,0.0342938303947448
3.3617568016052246,9.72897032625042e-06,-2.658932498889044e-05,-1.6141464584507048e-05,0.2530014812946319,-9.757831573486328,0.0534361898899078
3.3667664527893066,9.72897032625042e-06,-2.658932498889044e-05,-1.6141464584507048e-05,0.2928391396999359,-9.718635559082031,0.0150975584983825
3.3717753887176514,9.72897032625042e-06,0.0017187398625537,0.0017291877884417,0.2730566263198852,-9.718243598937988,0.0346665978431701
3.376783609390259,0.0035003875382244,0.0017187398625537,-1.6141464584507048e-05,0.3027043044567108,-9.73845672607422,0.0149111747741699
3.3817930221557617,-0.0017356002936139,0.0034640692174434,0.0017291877884417,0.2929232120513916,-9.737897872924805,0.0346935093402862
3.3868024349212646,9.72897032625042e-06,0.0034640692174434,-1.6141464584507048e-05,0.3027043044567108,-9.73845672607422,0.0149111747741699
3.3918118476867676,9.72897032625042e-06,-2.658932498889044e-05,-1.6141464584507048e-05,0.2725636065006256,-9.75894832611084,0.0138716101646423
3.3968210220336914,9.72897032625042e-06,-2.658932498889044e-05,0.0017291877884417,0.3023998439311981,-9.71992015838623,-0.0246802866458892
3.4018304347991943,9.72897032625042e-06,0.0034640692174434,-1.6141464584507048e-05,0.2935525476932525,-9.677205085754396,0.0558880567550659
3.4068398475646973,0.0017550581833347,-2.658932498889044e-05,0.0034745170269161,0.3029246926307678,-9.737730026245115,0.0349068045616149
3.411851644515991,-0.0017356002936139,0.0034640692174434,-1.6141464584507048e-05,0.2922098040580749,-9.77932834625244,-0.0060970485210418
3.416862726211548,9.72897032625042e-06,0.0052093984559178,0.0034745170269161,0.2926505804061889,-9.777875900268556,0.0338941514492034
3.4218740463256836,9.72897032625042e-06,-2.658932498889044e-05,0.0034745170269161,0.2924301922321319,-9.778602600097656,0.0138985216617584
3.4268856048583984,9.72897032625042e-06,-2.658932498889044e-05,-1.6141464584507048e-05,0.2724795341491699,-9.73968505859375,-0.0057242810726165
3.4318957328796387,0.0017550581833347,0.0034640692174434,0.0052198460325598,0.2926187515258789,-9.719361305236816,-0.0048980116844177
3.4369072914123535,0.0017550581833347,-2.658932498889044e-05,-1.6141464584507048e-05,0.2924824357032776,-9.739350318908691,-0.0052976906299591
3.4419186115264893,9.72897032625042e-06,0.0017187398625537,0.0017291877884417,0.3025361597537994,-9.699931144714355,-0.0242806077003479
3.446929931640625,9.72897032625042e-06,0.0017187398625537,-1.6141464584507048e-05,0.3026202321052551,-9.719193458557127,-0.0046847164630889
3.45194149017334,9.72897032625042e-06,0.0017187398625537,-1.6141464584507048e-05,0.2923461198806762,-9.759339332580566,-0.0056973695755004
3.4569528102874756,9.72897032625042e-06,0.0034640692174434,0.0017291877884417,0.3029246926307678,-9.737730026245115,0.0349068045616149
3.4619643688201904,0.0035003875382244,0.0034640692174434,0.0034745170269161,0.3027883768081665,-9.757719039916992,0.0345071256160736
3.466975688934326,9.72897032625042e-06,-2.658932498889044e-05,-0.0017614706885069,0.2927028238773346,-9.738624572753906,0.0146978795528411
3.471987247467041,9.72897032625042e-06,-2.658932498889044e-05,-1.6141464584507048e-05,0.2721228301525116,-9.760400772094728,-0.0261195302009582
3.4769985675811768,9.72897032625042e-06,-2.658932498889044e-05,0.0017291877884417,0.2928391396999359,-9.718635559082031,0.0150975584983825
3.4820098876953125,9.72897032625042e-06,-2.658932498889044e-05,-1.6141464584507048e-05,0.2923461198806762,-9.759339332580566,-0.0056973695755004
3.487020254135132,9.72897032625042e-06,0.0017187398625537,-1.6141464584507048e-05,0.2927028238773346,-9.738624572753906,0.0146978795528411
3.492032766342163,-0.003480929415673,0.0034640692174434,-0.0017614706885069,0.3030610084533691,-9.717741012573242,0.0353064835071563
3.4970431327819824,9.72897032625042e-06,-2.658932498889044e-05,-1.6141464584507048e-05,0.3029246926307678,-9.737730026245115,0.0349068045616149
3.502054452896118,9.72897032625042e-06,0.0052093984559178,-1.6141464584507048e-05,0.3026202321052551,-9.719193458557127,-0.0046847164630889
3.507066011428833,9.72897032625042e-06,0.0017187398625537,0.0034745170269161,0.3024839162826538,-9.739182472229004,-0.0050843954086303
3.5120773315429688,9.72897032625042e-06,-2.658932498889044e-05,-1.6141464584507048e-05,0.2530537247657776,-9.718579292297363,0.0342400074005126
3.5170888900756836,-0.0017356002936139,0.0034640692174434,-1.6141464584507048e-05,0.2926187515258789,-9.719361305236816,-0.0048980116844177
3.5221004486083984,9.72897032625042e-06,0.0052093984559178,-1.6141464584507048e-05,0.2919053435325622,-9.760791778564451,-0.0456885248422622
3.527111530303955,0.0017550581833347,0.0034640692174434,-1.6141464584507048e-05,0.2927868962287903,-9.75788688659668,0.0342938303947448
3.53212308883667,9.72897032625042e-06,-2.658932498889044e-05,-1.6141464584507048e-05,0.2726999223232269,-9.738959312438965,0.0142712891101837
3.5371346473693848,9.72897032625042e-06,-2.658932498889044e-05,0.0017291877884417,0.3028406202793121,-9.718467712402344,0.0153108537197113
3.5421459674835205,0.0017550581833347,0.0017187398625537,-1.6141464584507048e-05,0.2927550673484802,-9.69937229156494,-0.0044983327388763
3.547157049179077,9.72897032625042e-06,0.0034640692174434,0.0017291877884417,0.2924824357032776,-9.739350318908691,-0.0052976906299591
3.5521676540374756,9.72897032625042e-06,0.0017187398625537,0.0017291877884417,0.2929232120513916,-9.737897872924805,0.0346935093402862
3.5571792125701904,-0.003480929415673,-2.658932498889044e-05,-1.6141464584507048e-05,0.3030610084533691,-9.717741012573242,0.0353064835071563
3.5621907711029053,9.72897032625042e-06,-2.658932498889044e-05,-1.6141464584507048e-05,0.2929232120513916,-9.737897872924805,0.0346935093402862
3.5672030448913574,0.0035003875382244,-2.658932498889044e-05,0.0017291877884417,0.2927868962287903,-9.75788688659668,0.0342938303947448
3.572213649749756,9.72897032625042e-06,0.0052093984559178,0.0017291877884417,0.2927868962287903,-9.75788688659668,0.0342938303947448
3.5772249698638916,9.72897032625042e-06,0.0017187398625537,-0.0017614706885069,0.2928391396999359,-9.718635559082031,0.0150975584983825
3.5822362899780273,-0.0017356002936139,-2.658932498889044e-05,0.0034745170269161,0.3021794557571411,-9.720645904541016,-0.0446758717298507
3.587247848510742,-0.0017356002936139,0.0017187398625537,0.0052198460325598,0.3025361597537994,-9.699931144714355,-0.0242806077003479
3.592259168624878,9.72897032625042e-06,-2.658932498889044e-05,-1.6141464584507048e-05,0.2932799160480499,-9.717183113098145,0.0550887286663055
3.5972707271575928,-0.0017356002936139,0.0034640692174434,0.0034745170269161,0.2924824357032776,-9.739350318908691,-0.0052976906299591
3.6022822856903076,9.72897032625042e-06,-2.658932498889044e-05,-1.6141464584507048e-05,0.2923461198806762,-9.759339332580566,-0.0056973695755004
3.6072936058044434,9.72897032625042e-06,0.0034640692174434,0.0017291877884417,0.2726999223232269,-9.738959312438965,0.0142712891101837
3.612304925918579,9.72897032625042e-06,0.0017187398625537,0.0017291877884417,0.2923983633518219,-9.720088005065918,-0.024893581867218
3.6173155307769775,-0.0017356002936139,-2.658932498889044e-05,-1.6141464584507048e-05,0.2726158499717712,-9.719696044921877,-0.0053246021270751
3.622328042984009,9.72897032625042e-06,-2.658932498889044e-05,-1.6141464584507048e-05,0.2924824357032776,-9.739350318908691,-0.0052976906299591
3.627338409423828,0.0017550581833347,0.0017187398625537,-1.6141464584507048e-05,0.2922620475292206,-9.740077018737791,-0.0252932608127594
3.632349967956543,9.72897032625042e-06,-2.658932498889044e-05,-1.6141464584507048e-05,0.2725636065006256,-9.75894832611084,0.0138716101646423
3.6373610496520996,9.72897032625042e-06,0.0034640692174434,0.0034745170269161,0.2927868962287903,-9.75788688659668,0.0342938303947448
3.6423728466033936,9.72897032625042e-06,0.0052093984559178,-1.6141464584507048e-05,0.2921257317066192,-9.760066032409668,-0.0256929397583007
3.6473844051361084,9.72897032625042e-06,0.0052093984559178,0.0017291877884417,0.2928391396999359,-9.718635559082031,0.0150975584983825
3.652395725250244,9.72897032625042e-06,-2.658932498889044e-05,0.0017291877884417,0.2729203104972839,-9.738232612609863,0.0342669188976287
3.65740704536438,9.72897032625042e-06,-2.658932498889044e-05,0.0034745170269161,0.2927028238773346,-9.738624572753906,0.0146978795528411
3.6624186038970947,9.72897032625042e-06,0.0052093984559178,-1.6141464584507048e-05,0.2922620475292206,-9.740077018737791,-0.0252932608127594
3.6674301624298096,9.72897032625042e-06,-2.658932498889044e-05,-1.6141464584507048e-05,0.3027043044567108,-9.73845672607422,0.0149111747741699
3.6724417209625244,9.72897032625042e-06,-2.658932498889044e-05,0.0052198460325598,0.3027043044567108,-9.73845672607422,0.0149111747741699
3.67745304107666,9.72897032625042e-06,-2.658932498889044e-05,0.0017291877884417,0.2929232120513916,-9.737897872924805,0.0346935093402862
3.682464599609375,9.72897032625042e-06,0.0034640692174434,0.0017291877884417,0.3031973242759704,-9.697751998901367,0.0357061624526977
3.6874752044677734,9.72897032625042e-06,-2.658932498889044e-05,-0.0017614706885069,0.2926187515258789,-9.719361305236816,-0.0048980116844177
3.692486524581909,9.72897032625042e-06,-2.658932498889044e-05,0.0017291877884417,0.3026202321052551,-9.719193458557127,-0.0046847164630889
3.697497844696045,9.72897032625042e-06,-2.658932498889044e-05,-1.6141464584507048e-05,0.2925665080547333,-9.75861358642578,0.0142982006072998
3.702509641647339,9.72897032625042e-06,0.0034640692174434,0.0017291877884417,0.3027043044567108,-9.73845672607422,0.0149111747741699
3.7075209617614746,9.72897032625042e-06,0.0017187398625537,0.0017291877884417,0.3025679886341095,-9.758445739746094,0.0145114958286285
3.7125325202941895,0.0035003875382244,-2.658932498889044e-05,-1.6141464584507048e-05,0.2924824357032776,-9.739350318908691,-0.0052976906299591
3.717543840408325,9.72897032625042e-06,-2.658932498889044e-05,-1.6141464584507048e-05,0.2724795341491699,-9.73968505859375,-0.0057242810726165
3.722555637359619,9.72897032625042e-06,-2.658932498889044e-05,-0.0017614706885069,0.2922620475292206,-9.740077018737791,-0.0252932608127594
3.727566957473755,-0.0017356002936139,0.0034640692174434,-1.6141464584507048e-05,0.3022635281085968,-9.739909172058104,-0.0250799655914306
3.7325782775878906,-0.0052262586541473,-2.658932498889044e-05,-1.6141464584507048e-05,0.2925665080547333,-9.75861358642578,0.0142982006072998
3.7375898361206055,9.72897032625042e-06,0.0052093984559178,0.0034745170269161,0.2923983633518219,-9.720088005065918,-0.024893581867218
3.742600440979004,9.72897032625042e-06,-2.658932498889044e-05,0.0017291877884417,0.3023476004600525,-9.75917148590088,-0.0054840743541717
3.7476117610931396,9.72897032625042e-06,0.0034640692174434,0.0017291877884417,0.3025679886341095,-9.758445739746094,0.0145114958286285
3.7526233196258545,9.72897032625042e-06,-2.658932498889044e-05,-1.6141464584507048e-05,0.2930072844028473,-9.757161140441896,0.0542893707752227
3.7576346397399902,0.0052457167766988,-2.658932498889044e-05,0.0034745170269161,0.3027043044567108,-9.73845672607422,0.0149111747741699
3.762646436691284,9.72897032625042e-06,-2.658932498889044e-05,0.0017291877884417,0.2929754555225372,-9.698646545410156,0.0154972374439239
3.76765775680542,9.72897032625042e-06,0.0017187398625537,-1.6141464584507048e-05,0.2727521657943725,-9.69970703125,-0.0049249231815338
3.7726693153381348,9.72897032625042e-06,-2.658932498889044e-05,-1.6141464584507048e-05,0.2928391396999359,-9.718635559082031,0.0150975584983825
3.7776806354522705,9.72897032625042e-06,0.0017187398625537,-1.6141464584507048e-05,0.2924824357032776,-9.739350318908691,-0.0052976906299591
3.7826924324035645,9.72897032625042e-06,-2.658932498889044e-05,0.0034745170269161,0.2926505804061889,-9.777875900268556,0.0338941514492034
3.7877037525177,9.72897032625042e-06,0.0034640692174434,-1.6141464584507048e-05,0.2727839946746826,-9.758221626281738,0.0338672399520874
3.792715311050415,-0.003480929415673,-2.658932498889044e-05,-1.6141464584507048e-05,0.2927028238773346,-9.738624572753906,0.0146978795528411
3.797726631164551,9.72897032625042e-06,-2.658932498889044e-05,-1.6141464584507048e-05,0.3027043044567108,-9.73845672607422,0.0149111747741699
3.8027384281158447,9.72897032625042e-06,0.0034640692174434,0.0034745170269161,0.3028406202793121,-9.718467712402344,0.0153108537197113
3.8077497482299805,9.72897032625042e-06,0.0034640692174434,-1.6141464584507048e-05,0.2929754555225372,-9.698646545410156,0.0154972374439239
3.812760353088379,-0.0017356002936139,-2.658932498889044e-05,-1.6141464584507048e-05,0.3024839162826538,-9.739182472229004,-0.0050843954086303
3.8177719116210938,9.72897032625042e-06,-2.658932498889044e-05,0.0034745170269161,0.3024839162826538,-9.739182472229004,-0.0050843954086303
3.8227834701538086,9.72897032625042e-06,0.0034640692174434,-1.6141464584507048e-05,0.2927868962287903,-9.75788688659668,0.0342938303947448
3.8277950286865234,9.72897032625042e-06,0.0017187398625537,-1.6141464584507048e-05,0.2924301922321319,-9.778602600097656,0.0138985216617584
3.832806348800659,9.72897032625042e-06,-2.658932498889044e-05,0.0017291877884417,0.3027043044567108,-9.73845672607422,0.0149111747741699
3.837817907333374,-0.0017356002936139,0.0052093984559178,-1.6141464584507048e-05,0.2728362381458282,-9.71897029876709,0.014670968055725
3.842829704284668,0.0035003875382244,0.0052093984559178,0.0017291877884417,0.2929232120513916,-9.737897872924805,0.0346935093402862
3.8478410243988037,-0.003480929415673,-2.658932498889044e-05,-1.6141464584507048e-05,0.2726158499717712,-9.719696044921877,-0.0053246021270751
3.8528525829315186,9.72897032625042e-06,-0.0017719186143949,-1.6141464584507048e-05,0.2927028238773346,-9.738624572753906,0.0146978795528411
3.8578641414642334,9.72897032625042e-06,0.0052093984559178,0.0017291877884417,0.2922098040580749,-9.77932834625244,-0.0060970485210418
3.8628745079040527,9.72897032625042e-06,-2.658932498889044e-05,-1.6141464584507048e-05,0.3227912783622741,-9.757383346557615,0.034933716058731
3.8678863048553467,-0.0017356002936139,0.0017187398625537,-1.6141464584507048e-05,0.2922938764095306,-9.798591613769531,0.013498842716217
3.872898578643799,9.72897032625042e-06,-2.658932498889044e-05,0.0034745170269161,0.3226231336593628,-9.718857765197754,-0.0042581260204315
3.8779091835021973,9.72897032625042e-06,-2.658932498889044e-05,-1.6141464584507048e-05,0.2729203104972839,-9.738232612609863,0.0342669188976287
3.882920742034912,9.72897032625042e-06,0.0034640692174434,0.0034745170269161,0.3035017848014831,-9.716288566589355,0.0752976238727569
3.887932300567627,9.72897032625042e-06,0.0017187398625537,-1.6141464584507048e-05,0.2927550673484802,-9.69937229156494,-0.0044983327388763
3.892943859100342,0.0017550581833347,-2.658932498889044e-05,0.0052198460325598,0.3026202321052551,-9.719193458557127,-0.0046847164630889
3.8979556560516357,9.72897032625042e-06,0.0034640692174434,-1.6141464584507048e-05,0.2729203104972839,-9.738232612609863,0.0342669188976287
3.9029667377471924,-0.0017356002936139,-0.0017719186143949,-1.6141464584507048e-05,0.272731751203537,-9.797473907470703,0.0530634224414825
3.9079785346984863,9.72897032625042e-06,0.0034640692174434,0.0052198460325598,0.3027043044567108,-9.73845672607422,0.0149111747741699
3.912990093231201,9.72897032625042e-06,-2.658932498889044e-05,0.0017291877884417,0.2926187515258789,-9.719361305236816,-0.0048980116844177
3.918001651763916,9.72897032625042e-06,-2.658932498889044e-05,-1.6141464584507048e-05,0.3033654689788818,-9.73627758026123,0.0748979449272155
3.923013210296631,0.0017550581833347,-2.658932498889044e-05,0.0017291877884417,0.2930595278739929,-9.71790885925293,0.0350931882858276
3.9280247688293457,-0.0017356002936139,0.0034640692174434,0.0017291877884417,0.2927028238773346,-9.738624572753906,0.0146978795528411
3.933035135269165,9.72897032625042e-06,0.0017187398625537,-1.6141464584507048e-05,0.2927868962287903,-9.75788688659668,0.0342938303947448
3.93804669380188,9.72897032625042e-06,-2.658932498889044e-05,-1.6141464584507048e-05,0.2924824357032776,-9.739350318908691,-0.0052976906299591
3.9430582523345947,9.72897032625042e-06,-2.658932498889044e-05,0.0017291877884417,0.2926187515258789,-9.719361305236816,-0.0048980116844177
3.9480700492858887,9.72897032625042e-06,0.0017187398625537,0.0017291877884417,0.3027043044567108,-9.73845672607422,0.0149111747741699
3.9530813694000244,9.72897032625042e-06,-2.658932498889044e-05,-1.6141464584507048e-05,0.2722591459751129,-9.740411758422852,-0.0257198512554168
3.9580929279327393,9.72897032625042e-06,0.0017187398625537,-1.6141464584507048e-05,0.2928391396999359,-9.718635559082031,0.0150975584983825
3.963104486465454,0.0035003875382244,0.0017187398625537,0.0017291877884417,0.2727521657943725,-9.69970703125,-0.0049249231815338
3.968116044998169,9.72897032625042e-06,0.0034640692174434,0.0017291877884417,0.2923461198806762,-9.759339332580566,-0.0056973695755004
3.973127603530884,-0.0017356002936139,-2.658932498889044e-05,0.0034745170269161,0.3023476004600525,-9.75917148590088,-0.0054840743541717
3.9781391620635986,-0.0017356002936139,-2.658932498889044e-05,-0.0017614706885069,0.3227072060108185,-9.738121032714844,0.0153377652168273
3.9831509590148926,0.0035003875382244,0.0034640692174434,0.0017291877884417,0.2926187515258789,-9.719361305236816,-0.0048980116844177
3.988161325454712,9.72897032625042e-06,0.0017187398625537,-1.6141464584507048e-05,0.3231479823589325,-9.736668586730955,0.0553289353847503
3.9931726455688477,9.72897032625042e-06,0.0034640692174434,-1.6141464584507048e-05,0.2932799160480499,-9.717183113098145,0.0550887286663055
3.9981846809387207,9.72897032625042e-06,-2.658932498889044e-05,0.0017291877884417,0.3027043044567108,-9.73845672607422,0.0149111747741699
4.0031960010528564,9.72897032625042e-06,-2.658932498889044e-05,0.0017291877884417,0.2729203104972839,-9.738232612609863,0.0342669188976287
4.0082080364227295,-0.0017356002936139,0.0017187398625537,0.0034745170269161,0.2530014812946319,-9.757831573486328,0.0534361898899078
4.013219356536865,0.0017550581833347,-2.658932498889044e-05,-1.6141464584507048e-05,0.3029246926307678,-9.737730026245115,0.0349068045616149
4.018230676651001,9.72897032625042e-06,-2.658932498889044e-05,0.0034745170269161,0.2923983633518219,-9.720088005065918,-0.024893581867218
4.023242473602295,9.72897032625042e-06,-2.658932498889044e-05,0.0017291877884417,0.3029769361019134,-9.698478698730469,0.0157105326652526
4.02825403213501,-0.0017356002936139,-0.0017719186143949,0.0017291877884417,0.3026202321052551,-9.719193458557127,-0.0046847164630889
4.033265590667725,0.0017550581833347,0.0052093984559178,0.0017291877884417,0.2927028238773346,-9.738624572753906,0.0146978795528411
4.0382771492004395,9.72897032625042e-06,-2.658932498889044e-05,-1.6141464584507048e-05,0.2925665080547333,-9.75861358642578,0.0142982006072998
4.043288946151733,9.72897032625042e-06,0.0017187398625537,0.0034745170269161,0.3026520609855652,-9.777708053588867,0.0341074466705322
4.048300266265869,9.72897032625042e-06,-2.658932498889044e-05,0.0017291877884417,0.2922098040580749,-9.77932834625244,-0.0060970485210418
4.053311824798584,9.72897032625042e-06,-2.658932498889044e-05,-1.6141464584507048e-05,0.2926187515258789,-9.719361305236816,-0.0048980116844177
4.058322429656982,0.0035003875382244,0.0034640692174434,-1.6141464584507048e-05,0.2929232120513916,-9.737897872924805,0.0346935093402862
4.063333988189697,9.72897032625042e-06,-2.658932498889044e-05,0.0017291877884417,0.3023998439311981,-9.71992015838623,-0.0246802866458892
4.068345785140991,0.0017550581833347,0.0034640692174434,0.0034745170269161,0.3024839162826538,-9.739182472229004,-0.0050843954086303
4.073357105255127,9.72897032625042e-06,0.0052093984559178,0.0017291877884417,0.3023476004600525,-9.75917148590088,-0.0054840743541717
4.078368902206421,0.0017550581833347,0.0017187398625537,-1.6141464584507048e-05,0.2927868962287903,-9.75788688659668,0.0342938303947448
4.083380460739136,9.72897032625042e-06,0.0017187398625537,-1.6141464584507048e-05,0.3024316728115082,-9.778434753417969,0.0141118168830871
4.088392019271851,9.72897032625042e-06,0.0017187398625537,-1.6141464584507048e-05,0.2926187515258789,-9.719361305236816,-0.0048980116844177
4.093404054641724,9.72897032625042e-06,-2.658932498889044e-05,-0.0017614706885069,0.2926187515258789,-9.719361305236816,-0.0048980116844177
4.098415374755859,9.72897032625042e-06,-2.658932498889044e-05,0.0017291877884417,0.2729203104972839,-9.738232612609863,0.0342669188976287
4.103426933288574,0.0017550581833347,0.0069547276943922,-1.6141464584507048e-05,0.2926187515258789,-9.719361305236816,-0.0048980116844177
4.108438491821289,9.72897032625042e-06,0.0052093984559178,0.0017291877884417,0.2927028238773346,-9.738624572753906,0.0146978795528411
4.113450288772583,9.72897032625042e-06,0.0034640692174434,-1.6141464584507048e-05,0.2925665080547333,-9.75861358642578,0.0142982006072998
4.118461608886719,9.72897032625042e-06,-2.658932498889044e-05,0.0017291877884417,0.3027883768081665,-9.757719039916992,0.0345071256160736
4.123472452163696,9.72897032625042e-06,0.0017187398625537,-0.0017614706885069,0.2925665080547333,-9.75861358642578,0.0142982006072998
4.128484010696411,0.0017550581833347,0.0017187398625537,-1.6141464584507048e-05,0.3023476004600525,-9.75917148590088,-0.0054840743541717
4.133495569229126,-0.003480929415673,0.0034640692174434,-1.6141464584507048e-05,0.2928391396999359,-9.718635559082031,0.0150975584983825
4.138507127761841,9.72897032625042e-06,-2.658932498889044e-05,-1.6141464584507048e-05,0.2922620475292206,-9.740077018737791,-0.0252932608127594
4.143518924713135,9.72897032625042e-06,-2.658932498889044e-05,-0.0017614706885069,0.2731929421424866,-9.698254585266112,0.0350662767887115
4.14853048324585,9.72897032625042e-06,0.0017187398625537,-1.6141464584507048e-05,0.2723432183265686,-9.759674072265623,-0.0061239600181579
4.1535420417785645,0.0017550581833347,0.0017187398625537,-1.6141464584507048e-05,0.2928391396999359,-9.718635559082031,0.0150975584983825
4.158553838729858,0.0017550581833347,0.0017187398625537,0.0034745170269161,0.2925665080547333,-9.75861358642578,0.0142982006072998
4.163565635681152,9.72897032625042e-06,0.0069547276943922,-1.6141464584507048e-05,0.2721228301525116,-9.760400772094728,-0.0261195302009582
4.168576955795288,0.0035003875382244,-2.658932498889044e-05,-1.6141464584507048e-05,0.3228435218334198,-9.718132019042969,0.0157374441623687
4.173588514328003,9.72897032625042e-06,0.0034640692174434,0.0034745170269161,0.2524766325950622,-9.740020751953123,-0.006150871515274
4.178599834442139,9.72897032625042e-06,-2.658932498889044e-05,0.0052198460325598,0.3021794557571411,-9.720645904541016,-0.0446758717298507
4.183610916137695,9.72897032625042e-06,0.0034640692174434,-1.6141464584507048e-05,0.2929232120513916,-9.737897872924805,0.0346935093402862
4.18862247467041,-0.0017356002936139,-2.658932498889044e-05,0.0017291877884417,0.3025679886341095,-9.758445739746094,0.0145114958286285
4.193634033203125,9.72897032625042e-06,0.0034640692174434,0.0017291877884417,0.3029246926307678,-9.737730026245115,0.0349068045616149
4.198645830154419,9.72897032625042e-06,-2.658932498889044e-05,0.0034745170269161,0.2725636065006256,-9.75894832611084,0.0138716101646423
4.203657388687134,9.72897032625042e-06,-2.658932498889044e-05,0.0034745170269161,0.2927868962287903,-9.75788688659668,0.0342938303947448
4.208668947219849,-0.0017356002936139,0.0034640692174434,-1.6141464584507048e-05,0.2932799160480499,-9.717183113098145,0.0550887286663055
4.213680744171143,9.72897032625042e-06,-0.0017719186143949,0.0034745170269161,0.2933321595191955,-9.67793083190918,0.035892516374588
4.218692302703857,9.72897032625042e-06,0.0034640692174434,-1.6141464584507048e-05,0.2730566263198852,-9.718243598937988,0.0346665978431701
4.223703861236572,9.72897032625042e-06,0.0017187398625537,0.0052198460325598,0.3025679886341095,-9.758445739746094,0.0145114958286285
4.228715419769287,9.72897032625042e-06,0.0017187398625537,-1.6141464584507048e-05,0.2722591459751129,-9.740411758422852,-0.0257198512554168
4.233727216720581,-0.0017356002936139,0.0017187398625537,-1.6141464584507048e-05,0.3024839162826538,-9.739182472229004,-0.0050843954086303
4.2387378215789795,9.72897032625042e-06,0.0034640692174434,0.0017291877884417,0.3223505020141601,-9.758835792541504,-0.0050574839115142
4.243749618530273,9.72897032625042e-06,0.0034640692174434,-1.6141464584507048e-05,0.3025679886341095,-9.758445739746094,0.0145114958286285
4.248761177062988,9.72897032625042e-06,0.0017187398625537,-0.0017614706885069,0.2728362381458282,-9.71897029876709,0.014670968055725
4.253772974014282,-0.003480929415673,-2.658932498889044e-05,0.0017291877884417,0.2927550673484802,-9.69937229156494,-0.0044983327388763
4.258784532546997,9.72897032625042e-06,-2.658932498889044e-05,-1.6141464584507048e-05,0.2729203104972839,-9.738232612609863,0.0342669188976287
4.263796091079712,9.72897032625042e-06,-2.658932498889044e-05,0.0034745170269161,0.2921257317066192,-9.760066032409668,-0.0256929397583007
4.268807888031006,-0.0017356002936139,-2.658932498889044e-05,-1.6141464584507048e-05,0.2924301922321319,-9.778602600097656,0.0138985216617584
4.273819446563721,9.72897032625042e-06,-2.658932498889044e-05,0.0017291877884417,0.2726999223232269,-9.738959312438965,0.0142712891101837
4.278831243515015,-0.0017356002936139,-2.658932498889044e-05,-1.6141464584507048e-05,0.2924824357032776,-9.739350318908691,-0.0052976906299591
4.2838428020477295,9.72897032625042e-06,0.0017187398625537,0.0034745170269161,0.2527492642402649,-9.700042724609377,-0.0053515136241912
4.288854598999023,9.72897032625042e-06,0.0034640692174434,-1.6141464584507048e-05,0.2929754555225372,-9.698646545410156,0.0154972374439239
4.293866157531738,9.72897032625042e-06,0.0017187398625537,-1.6141464584507048e-05,0.2925665080547333,-9.75861358642578,0.0142982006072998
4.298877716064453,9.72897032625042e-06,0.0034640692174434,-1.6141464584507048e-05,0.2926505804061889,-9.777875900268556,0.0338941514492034
4.303888320922852,9.72897032625042e-06,0.0017187398625537,-1.6141464584507048e-05,0.2922938764095306,-9.798591613769531,0.013498842716217
4.3089001178741455,-0.0017356002936139,0.0034640692174434,-1.6141464584507048e-05,0.2727839946746826,-9.758221626281738,0.0338672399520874
4.3139119148254395,9.72897032625042e-06,0.0017187398625537,0.0017291877884417,0.2927550673484802,-9.69937229156494,-0.0044983327388763
4.318923711776733,9.72897032625042e-06,-2.658932498889044e-05,-0.0017614706885069,0.2927550673484802,-9.69937229156494,-0.0044983327388763
4.323935031890869,9.72897032625042e-06,0.0052093984559178,0.0017291877884417,0.2929754555225372,-9.698646545410156,0.0154972374439239
4.328946828842163,9.72897032625042e-06,-2.658932498889044e-05,-1.6141464584507048e-05,0.3029769361019134,-9.698478698730469,0.0157105326652526
