timestamp,angular_velocity.x,angular_velocity.y,angular_velocity.z,linear_acceleration.x,linear_acceleration.y,linear_acceleration.z
1785983341.7138915,-0.004139798693358898,-0.002156897913664579,0.00258779781870544,0.13553525507450104,0.009354218840600262,9.814971923828125
1785983341.7384381,0.00345812551677227,-0.0024100414011627436,0.00032841053325682906,0.14914728701114655,0.0665072500705731,9.821398735046387
1785983341.754052,-0.004200794734060764,-0.001370101235806942,0.0006130802212283017,0.12867455184459686,-0.0007554590702044897,9.78902816772461
1785983341.7730105,0.002383673330768943,0.0007205414585769175,-0.0011253950651735067,0.14120464026927948,0.048422135412694224,9.815610885620117
1785983341.7942934,-0.001248885178938508,0.000339076155796647,-0.0003702358226291836,0.1523587554693222,0.017328202724457988,9.806426048278809
1785983341.814411,-0.0003919480659533292,-0.0007911818102002142,0.0016482858918607235,0.1438838094472885,0.009996719658375989,9.819558143615723
1785983341.8366232,0.0035837062168866396,0.003541312413290143,-0.0005357400514185433,0.13725440204143524,0.04931143671274305,9.782740592956543
1785983341.8551846,-0.0011450331658124924,-0.0009718600194901229,-0.0013092143926769493,0.13205067813396454,0.01088079810142637,9.781490325927734
1785983341.8739963,0.00437171570956707,-0.0033901359420269728,0.001225073006935418,0.16059382259845734,0.049859680235387095,9.790109634399414
1785983341.8931558,-0.0024981540627777576,-0.001712606637738645,-9.043540921993533e-05,0.15387064218521118,0.03552748262882353,9.797609329223633
1785983341.915004,0.00647143367677927,-0.0008137410040944814,0.0011841326486319304,0.12299157679080963,0.015566371381284005,9.785076141357422
1785983341.936436,0.0019592696335166693,-0.00016841571778058992,0.0010531722800806165,0.15372957289218903,0.03373289853334547,9.782487869262695
1785983341.9550967,0.0006210356950759888,0.0032898245844990015,0.0004424836952239271,0.14532804489135742,0.026777245104314097,9.80479621887207
1785983341.9733481,0.008626159280538559,-0.0012985013891011477,0.000708206556737423,0.16176703572273254,0.024311393499375587,9.782574653625488
1785983341.9951634,0.0013633848866447806,0.0063473982736468315,-6.723855040036219e-05,0.1261158585548401,0.03370347619056822,9.785266876220703
1785983342.0141315,0.0011177514679729939,0.0008996573742479084,-0.001969210570678115,0.16084255278110504,0.045280903577805766,9.794564247131348
1785983342.0367115,0.00212308787740767,0.0020859513897448782,0.0030354207847267385,0.15700125694274902,0.00949527323246122,9.7899751663208
1785983342.0551188,-0.0037074307911098003,-0.0010541391093283892,-0.0007568599539808928,0.15017078816890717,0.006578512489796888,9.826019287109375
1785983342.074042,0.005541710183024406,0.001598605886101723,0.0015978235751390455,0.14336688816547394,0.033683523535729655,9.79847526550293
1785983342.092982,0.0045317793264985085,-0.0036876152735203505,0.0005443005356937651,0.1500505656003952,0.06426262855529905,9.778080940246582
1785983342.1139505,-0.0012450434733182192,0.0027059318963438277,0.0025230136234313245,0.14195606112480164,0.0027632042765629358,9.786381721496582
1785983342.1362536,0.006220160983502865,-0.0058747753500938416,-0.0011446895077824586,0.17160429060459137,0.020708940923215163,9.819811820983887
1785983342.1540205,-0.00040787694160826504,-0.0007367790676653384,0.000606266548857093,0.16380049288272858,0.0540003702044499,9.795820236206055
1785983342.1750765,0.00069465022534132,-0.0026044573169201612,-0.0014927837764844296,0.13492260873317719,0.021303832530976542,9.809329986572266
1785983342.1930733,0.0001979763328563422,0.0032418633345514536,-0.0007373819244094197,0.17279835045337677,0.044468969106675395,9.814699172973633
1785983342.2151256,0.0029312504921108484,-0.002184847369790077,-0.001324325450696051,0.13703876733779907,0.037551164627076396,9.787944793701172
1785983342.236682,-0.003075749147683382,0.0023376753088086843,-0.0012412583455443384,0.1752610206604004,0.029920376837254768,9.785460472106934
1785983342.2557685,0.0027587993536144495,0.0030837424565106626,-0.002429784275591374,0.1315084993839264,0.010529637336732152,9.761914253234863
1785983342.2741446,0.0008055733051151037,-0.002505289623513818,0.0003875119728036228,0.1758711338043213,0.053271211683751346,9.767122268676758
1785983342.294998,-0.00047963138786144555,0.0010016351006925108,0.0011468554148450492,0.173578143119812,0.02307094633579374,9.784929275512695
1785983342.3151038,0.00037882078322581947,-0.0047136470675468445,-9.739678353071154e-05,0.14235764741897583,-0.0073783323168742565,9.812788009643555
1785983342.3365533,0.006070822477340698,-0.0028589090798050165,0.001194986049085856,0.16993595659732819,0.03818462789058805,9.81021499633789
1785983342.3530784,-0.0023209177888929844,-0.005104438401758671,-0.0014132031938061112,0.1589808464050293,0.01897118985653044,9.83876895904541
1785983342.3742886,-0.002826369134709239,-0.0013258953113108871,0.0009909614454954865,0.15283386409282684,0.04981303215026976,9.833008766174316
1785983342.3929565,-0.0010850337566807866,0.004631450399756432,7.511914009228292e-05,0.14133320748806,0.042627617716790446,9.797030448913574
1785983342.4133162,-0.00044465356040745974,0.006671161390841007,-0.0002858777006622412,0.17566263675689697,-0.022923424839972246,9.817325592041016
1785983342.438439,-0.002109658205881715,-0.0024997489526867867,0.00042656599543988737,0.1428440660238266,0.0278610959649098,9.7957181930542
1785983342.4540303,-0.0018377614906057715,0.009616822935640812,0.0010927512776106585,0.13723549246788025,0.048376128077508226,9.83707332611084
1785983342.4750588,-0.0018619847251102328,0.0032447876874357466,0.0033070978242903943,0.14059823751449585,0.035939350724221476,9.791678428649902
1785983342.494144,-0.0012068430660292506,-0.004396934062242508,0.0012340205721557145,0.12232261896133423,0.017130985856057417,9.817850112915039
1785983342.514392,0.0004282078007236123,0.0007408063393086194,-0.00048779038479551684,0.14728975296020508,0.050350978970528856,9.861482620239258
1785983342.5364463,-0.0010151827009394765,0.0007376004941761495,0.0007565426058135926,0.1511523723602295,0.042671747505666026,9.818387031555176
1785983342.553083,-0.004599735140800476,-0.0003688717260956762,0.0018235673196613789,0.14800123870372772,0.0007015913724911285,9.793243408203125
1785983342.5741472,0.0012626147363334894,-0.005394062027335167,-0.0009640354546718293,0.12932232022285461,0.01586777716875196,9.783384323120117
1785983342.595145,0.001129915821366012,-0.008258208632469177,0.0012084271293133508,0.11999459564685822,0.011743754148484475,9.789121627807617
1785983342.6150527,0.0024286997504532337,0.0027315916959196325,-0.002465321216732264,0.1644607037305832,0.003542035818101179,9.826273918151855
1785983342.6363072,-0.004272072575986385,-0.0029781633056700225,0.0021930276416242127,0.09593651443719864,0.030591771006585364,9.768128395080566
1785983342.653027,0.008798950351774693,-0.0013724663294851782,-0.0010001722257584331,0.12294778227806091,-0.00652360171079516,9.764106750488281
1785983342.6741748,0.000532822625245899,0.0023901478853076696,0.00116795371286571,0.11298061907291412,0.02202554792165876,9.782710075378418
1785983342.6941657,0.0022310882341116667,0.004959976300597191,-0.0012782963458448655,0.17386065423488617,0.0548347532749188,9.810501098632812
1785983342.7146518,-0.006933155469596386,0.0020844389218837023,-0.0003958062152378264,0.1427115499973297,0.0362587422132504,9.758243560791016
1785983342.7366054,0.004776773042976856,-0.0011333005968481302,0.0004434692091308536,0.14873215556144714,0.02840375900268675,9.821246147155762
1785983342.7552147,0.001002740697003901,-0.0023420588113367558,0.000590788607951254,0.12395550310611725,0.056818488985301265,9.798742294311523
1785983342.7733448,-0.002475978108122945,0.003217594930902123,-0.0017955107614398007,0.11511291563510895,0.04718241095543028,9.821413040161133
1785983342.795463,0.003182264044880867,-0.010052827186882496,0.003136792685836555,0.11065824329853058,0.028632916510106333,9.79055404663086
1785983342.8150961,-0.008259611204266548,0.004986543208360672,8.41787550598322e-06,0.139476478099823,0.050071820616723314,9.835227012634277
1785983342.875775,-0.0011871465248987079,0.004234025254845619,-0.0009939558804035191,0.1668587476015091,0.033279433846474894,9.825479507446289
1785983342.8916924,0.010196092538535595,0.00478377565741539,0.000608590838965028,0.11398498713970184,0.04345322400331617,9.8153076171875
1785983342.9127045,0.0038141163531690836,-0.0050263553857803345,0.0030516032129526143,0.17093242704868317,0.04292720556259275,9.799100875854492
1785983342.9316487,-0.0033094703685492277,-0.009904173202812672,-0.0002640523307491082,0.1544950306415558,0.03626129776239515,9.809317588806152
1785983342.95386,-0.003780865343287587,-9.481701999902439e-05,0.023399371653795242,0.24422204494476318,0.07049612700939299,9.87586784362793
1785983342.9776816,0.018118873238563538,-0.0013727309415117004,-0.08024245500564575,0.04563577100634575,0.07897286117076993,9.69416332244873
1785983342.9934585,-0.004207412712275982,0.002458545146510012,0.055390868335962296,0.052451204508543015,-0.04756581783294555,10.014119148254395
1785983343.012478,0.0024767350405454636,-0.00659832265228033,0.0059214597567915925,0.01817973330616951,0.06076186895370605,9.935323715209961
1785983343.0314631,0.020844431594014168,-0.0047000073827803196,-0.04877837002277374,0.15208321809768677,0.016953788697720792,9.934929847717285
1785983343.0549788,-0.0019235891522839665,0.004026964306831365,0.04002172127366066,0.1358233094215393,-0.06312535703182101,9.801371574401855
1785983343.0753074,-0.004879397340118885,-0.003574761329218749,-0.03058122843503952,0.09854920208454132,-0.008547142148016674,9.87413501739502
1785983343.0916438,0.005207286216318607,0.009804300963878632,0.006067353300750255,0.22688892483711243,-0.07208751142024873,9.909269332885742
1785983343.1132352,-0.005623920820653439,-0.0035084208939224473,0.007615759037435055,0.1711096167564392,-0.08173197507858157,9.778305053710938
1785983343.1363347,-0.003110869089141488,-0.0024558550212532286,-0.003920300863683224,0.16076774895191193,0.01682602614164472,9.761397361755371
1785983343.1536653,0.000870664487592876,-0.00032378442119806913,0.007741447538137436,0.15697872638702393,0.0018680989742291107,9.842100143432617
1785983343.176696,-0.004229959100484848,-0.0018089556833729159,-0.008762502111494541,0.18921445310115814,-0.049742087721823446,9.808693885803223
1785983343.192607,-0.0014897113433107734,0.0018916444387286908,0.00472597498446703,0.1763811558485031,0.058811489492656,9.779967308044434
1785983343.2125666,0.0044899932108819485,0.002205127151682973,0.0007868571556173263,0.06184249743819237,-0.04525870084762453,9.774280548095703
1785983343.2316353,-0.007675250060856342,0.0011860697995871301,-0.004324919544160366,0.166407972574234,-0.023041605949400655,9.80100154876709
1785983343.2536616,0.00018316203204449266,-0.00318217696622014,0.004232375882565975,0.1443803757429123,0.06175915896892668,9.866211891174316
1785983343.277192,0.004481336567550898,0.0027231967542320486,-0.003115596948191524,0.20965400338172913,-0.072441443800925,9.876762390136719
1785983343.292706,-0.00025154242757707834,-0.0006158596370369195,0.0008450943860225381,0.16345185041427612,-0.014045611023901687,9.83994197845459
1785983343.3123293,-0.0015504780458286405,0.005914879962801933,-0.0016339372377842671,0.206409752368927,-0.037269651889799825,9.796608924865723
1785983343.3328989,-0.007968120276927948,-0.003291929140686989,0.0010636625811457638,0.22628390789031982,-0.05428282916545747,9.850399017333984
1785983343.3517137,0.0001562384277349338,-0.003345856908708811,-0.0008389697177335616,0.19034671783447266,-0.013232037425039993,9.847858428955078
1785983343.3768353,0.0008167498162947595,-0.0047080060467123985,0.002112723188474775,0.09723180532455444,0.016672685742379425,9.71859073638916
1785983343.3922398,0.0024729485157877207,0.007717090658843517,-0.001506334403529764,0.12225896120071411,0.06911416351795316,9.739236831665039
1785983343.4126089,0.0016112353187054396,0.0041427211835980415,-0.00015167059609666518,0.14969593286514282,-0.02950258553027986,9.863162994384766
1785983343.4316108,-0.004374823532998562,-0.0019668489694595337,-0.0011301203630864618,0.212614506483078,-0.06845685839652894,9.867794036865234
1785983343.4537098,-0.004481904208660126,-0.005449129734188318,-0.0009455609833821648,0.24889637529850006,-0.0332956612110126,9.722114562988281
1785983343.4771497,-0.006047305651009083,0.000892487354576588,0.0030667867977172136,0.13205504417419434,0.002951420843602434,9.857423782348633
1785983343.4925952,-0.001322055933997035,-0.005463498644530773,-0.0009986106306314462,0.15288205444812775,-0.04567316174507022,9.773762702941895
1785983343.5136533,0.007723161019384861,0.002152140950784087,-0.0006692346651107075,0.09489461779594421,-0.03289324045181154,9.84261703491211
1785983343.5334601,-0.004418009892106056,-0.0009399185655638574,0.0010858443565666678,0.06758269667625427,0.07541486620903134,9.755514144897461
1785983343.5525525,-0.002480271039530635,0.0015286626294255257,-9.988684905692954e-05,0.2252911627292633,-0.0007679164409625331,9.897377014160156
1785983343.5765383,-0.0005789235583506525,-0.0012296020286157727,0.0004766757483594121,0.16603481769561768,-0.042509198188780524,9.938804626464844
1785983343.5925403,-0.0036348614376038313,-0.002954664407297969,-0.000368193024769425,0.3052414059638977,-0.07599377632140993,9.864402770996094
1785983343.6125145,-0.0004463802033569664,0.0038591211196035147,-0.0013792447280138735,0.17909392714500427,-0.016092702746390096,9.800198554992676
1785983343.6316345,-0.0018825086299329996,-0.004538069013506174,0.0003785340813919907,0.2087382674217224,0.00017625093460203015,9.799312591552734
1785983343.6537297,0.003577993717044592,0.0027313779573887587,-0.0017347100656479601,0.16960357129573822,-0.06709893047809481,9.755461692810059
1785983343.6783972,0.0005351883010007441,0.0014676928985863922,-0.0012790078762918713,0.08090303838253021,-0.026760786771773088,9.839506149291992
1785983343.6937609,-0.0033779770601540804,-0.0005061045521870259,-0.0022216106299310923,0.10374012589454651,-0.00770388543605684,9.835606575012207
1785983343.7139308,5.970141864963807e-05,-0.00035902741365134727,-0.0009934219997376204,0.12864618003368378,-0.12978093326091647,9.792675971984863
1785983343.7330923,-0.005204163491725922,0.004864842630922794,-0.0027900596614927058,0.19942738115787506,-0.07856300473213075,9.908401489257812
1785983343.7528896,0.004971211776137352,-8.437782526016525e-06,-0.002364564221352339,0.14444763958454132,0.04499347507953763,9.760510444641113
1785983343.7754714,0.004471807274967432,-0.0004922098014503716,0.0007704427698627115,0.14166802167892456,0.05257974565029263,9.713518142700195
1785983343.7940798,-0.003322267672047019,-0.0052460068836808205,-0.001654890715144574,0.14692166447639465,0.02455946058035017,9.801538467407227
1785983343.8134768,-0.00010446453234180808,-0.003218399826437235,-0.0012483410537242885,0.18769586086273193,-0.04378461837768433,9.897063255310059
1785983343.832012,0.0027710157446563244,0.0033438042737543583,0.0002691239351406689,0.1697419285774231,-0.045978143811224684,9.853873252868652
1785983343.8539596,-0.0029941268730908632,0.003768178168684244,-0.0016695930389687423,0.19911417365074158,-0.05006207525730013,9.81630802154541
1785983343.8771803,-0.00540141249075532,-0.0011113546788692474,-0.0007423491915687918,0.17235833406448364,0.007363334298135048,9.779247283935547
1785983343.8931608,-0.004006960894912481,-0.0025435234420001507,-0.001248677261173725,0.18310275673866272,-0.0015818029642093116,9.787896156311035
1785983343.9114723,-0.0006850995705462992,-0.004777979571372271,0.0004908932605758315,0.20014134049415588,-0.005433857440947286,9.804181098937988
1785983343.9335632,1.0960502550005913e-07,-0.005663544870913029,0.0021001044660806665,0.02406652458012104,0.05621339380741239,9.727483749389648
1785983343.9531336,-0.002946212189272046,0.000263168476521969,0.0014001057716086507,0.21318575739860535,-0.03882102668285249,9.871994972229004
1785983343.977844,0.0003653175081126392,-0.0038925192784518,0.0032839509658515458,0.23509028553962708,-0.031885460019110426,9.85278606414795
1785983343.9915917,0.0038862149231135845,0.0017989864572882652,0.0003863828023895619,0.21680618822574615,0.0636589750647557,9.808966636657715
1785983344.0112486,-0.006572491955012083,0.0026903599500656132,0.0023918910883367057,0.20760998129844666,0.02974750101566434,9.751669883728027
1785983344.0345159,-0.000596853788010776,-0.0008238609880208968,0.0005035252543166281,0.07898198068141937,0.031121790409089346,9.893266677856445
1785983344.0537434,0.00538070360198617,0.0006800608243793247,-0.0016600810922682285,0.058998022228479385,0.05292833596468091,9.742283821105957
1785983344.077744,-0.0008896865183487535,0.0015105733182281258,0.0009817671962082384,0.06289634108543396,0.02268584817648055,9.875503540039062
1785983344.0926344,0.0018130084499716759,0.001573953777551651,0.0006154685979709027,0.36674192547798157,-0.008360952138899551,9.843119621276855
1785983344.1124022,0.006919368635863066,-0.0022697525564581156,-0.0013034751173108814,0.38203349709510803,-0.0439736470580089,9.795126914978027
1785983344.1325054,0.0001891765568871051,-0.0016869986429810524,0.0005783274536952379,0.14458966255187988,0.12978515028953672,9.799769401550293
1785983344.152828,-0.007740892004221678,-0.007959073409438133,0.001456032390706242,0.36344143748283386,0.17373433709144712,9.73869514465332
1785983344.1754901,-0.0026856816839426756,0.002950310707092285,0.0014669270021840926,-0.05645964667201042,-0.1250859797000873,9.835650444030762
1785983344.193713,-0.0021539649460464716,0.0037133581936359406,0.0002686861553229387,0.18647421896457672,-0.06972862035035966,9.877076148986816
1785983344.2137656,0.0066175865940749645,-0.0012844421435147522,0.001526218722574413,0.12363980710506439,0.018155485391618018,9.773591041564941
1785983344.2329268,0.004000585526227951,-0.011417843401432037,-5.9148995205758606e-05,0.2776218354701996,0.032850407063962236,9.839173316955566
1785983344.2517638,0.0030644680373370647,-0.005324552766978741,0.002323665190488101,0.32993561029434204,0.18792355060577512,9.771862983703613
1785983344.2785287,-0.0044257924892008305,-0.004797815345227718,0.0012858106056228287,0.1600697934627533,-0.07262254506349441,9.973038673400879
1785983344.2924905,0.0025615112390369177,-0.0031196270138025284,0.0012824974255636339,-0.04640095308423042,-0.22325727343559146,9.768195152282715
1785983344.313572,-0.0007793136173859239,0.001380082219839096,0.0003282250836491583,0.39808982610702515,0.09044935554266098,9.97016429901123
1785983344.3326368,0.007749450858682394,-0.0023468765430152416,-0.0017339793266728518,0.3263745903968811,-0.1810581386089313,9.834031105041504
1785983344.3756711,0.0005492575583048165,-0.0058502377942204475,0.0008287072414532311,0.07852457463741302,-0.0388319268822658,9.803635597229004
1785983344.3916621,-0.0017203906318172812,-0.013905370607972145,-0.003688227850943802,0.018993329256772995,-0.2894213795661914,9.846327781677246
1785983344.411695,0.0002998012932948768,-0.012834595516324043,0.001346138538792731,0.2560776174068451,0.19760778546333435,9.930983543395996
1785983344.4348125,-0.0019644792191684246,-0.006134313531219959,0.0028377682901918897,0.2555658519268036,-0.01056230813264727,9.78162956237793
1785983344.454833,-0.008604111149907112,-0.008887874893844128,6.995943840593208e-05,0.317462682723999,-0.009427070617674579,9.810553550720215
1785983344.4768138,0.0036604534834623337,-0.012496381998062134,-0.0015423475997522458,0.07361011952161789,-0.006445184350012509,9.993837356567383
1785983344.4910707,-0.0020926441065967083,-0.0024168614763766527,-0.0012193489819765089,0.04788833111524582,0.18783237040042997,9.838088035583496
1785983344.514242,-0.005472547374665737,-0.006442961283028126,-0.001100352266803383,0.1872779130935669,-0.056105315685271,9.923253059387207
1785983344.5336025,0.001372082275338471,-0.010810363106429577,-0.0024325996637344347,0.1246195062994957,-0.20196163654327273,9.78609848022461
1785983344.552672,-0.012475881725549698,-0.02101301960647106,0.0001348629593849208,0.13198673725128174,0.03214416652917982,9.827291488647461
1785983344.5760627,-0.014299480244517326,-0.021841006353497505,-0.002405908424407241,0.3460482060909271,-0.06285052001476167,9.871296882629395
1785983344.5917222,-0.020944751799106598,-0.016492832452058792,0.001635541091673078,0.4039004445075989,0.12141276896000029,9.894831657409668
1785983344.61263,-0.017175858840346336,-0.02691003866493702,-0.0012659599306061831,0.3684402406215668,-0.12003174424171327,9.818521499633789
1785983344.6316686,-0.011211558245122433,-0.02236892841756344,0.0009712586179375676,0.21904256939888,-0.02646954357623937,9.53502082824707
1785983344.6545515,-0.02541683055460453,-0.0301459152251482,-0.002610235009342428,0.18320202827453613,0.0037541985511792006,9.97869873046875
1785983344.6775987,-0.023055560886859894,-0.031800296157598495,0.0032693534158170262,0.239322692155838,0.06642651557922484,9.80823802947998
1785983344.69355,-0.03298070654273033,-0.03338238596916199,0.0003782270941883366,0.31670528650283813,-0.1842309534549701,10.023507118225098
1785983344.7125928,-0.032723791897296906,-0.0526462160050869,0.0019852719269692963,0.12797218561172485,-0.06613261997699617,9.854060173034668
1785983344.7311072,-0.043074946850538254,-0.05563340708613396,0.0001248199841938981,0.3469769060611725,-0.028159052133558994,9.693323135375977
1785983344.7523053,-0.051155708730220795,-0.05994521081447601,0.0011605806648731305,0.21915766596794128,-0.003337875008581869,9.797005653381348
1785983344.7752285,-0.05475771054625511,-0.06397902220487595,0.003704037982970484,0.25892266631126404,-0.16567036509513733,10.006896018981934
1785983344.793622,-0.05099879577755928,-0.06388481706380844,0.004968051332980402,0.2727401852607727,-0.014910280704497082,9.871782302856445
1785983344.8132355,-0.04674169421195984,-0.08001865446567535,0.0013571439776569702,0.2635456919670105,-0.13917911052703735,9.902201652526855
1785983344.8324146,-0.053817473351955414,-0.07006652653217316,0.005443796515464791,0.4365282356739044,-0.139557898044585,9.783548355102539
1785983344.851209,-0.06300301849842072,-0.0762610211968422,0.0020088434685021734,0.26105383038520813,0.0853756070137036,9.813607215881348
1785983344.876678,-0.077997587621212,-0.08236019313335419,0.0026544835418462853,0.6102667450904846,0.03505364060402034,9.597918510437012
1785983344.8911924,-0.09457636624574661,-0.09358038008213043,0.0025141888763755673,0.3899541199207306,-0.36438843607902405,9.973299026489258
1785983344.913143,-0.08883766084909439,-0.11283335834741592,0.0044380407780409,0.33639460802078247,-0.27822318673133734,9.534360885620117
1785983344.9322352,-0.09224537014961243,-0.1315491795539856,-0.0001689876662567097,0.3222861886024475,-0.1686809062957752,9.610336303710938
1785983344.9512725,-0.09886351227760315,-0.13902482390403748,0.004994366317987459,0.2568609416484833,-0.5124157667160022,10.01355266571045
1785983344.975214,-0.11408907175064087,-0.1647530198097229,0.004906304180622121,0.5885209441184998,-0.40510940551757696,9.63996696472168
1785983344.9935462,-0.11352251470088959,-0.19691389799118042,0.009074017405509973,0.14746445417404175,-0.1999891102313983,10.209833145141602
1785983345.0124369,-0.13150638341903687,-0.19188033044338226,0.008345923386514211,0.5185510516166687,-0.11178751289844392,9.88753890991211
1785983345.0323548,-0.02836976759135723,-0.11058682203292847,0.017577584832906737,0.7502274513244629,-0.33036702871322515,9.737133026123047
1785983345.0527458,0.10368112474679947,-0.014456656761467457,-0.005652282387018202,0.45564019680023193,-0.39010989665985,8.824520111083984
1785983345.0752459,0.08621910214424133,-0.11683163791894913,0.014053735882043852,0.19543248414993286,-0.3210944831371295,9.904906272888184
1785983345.0932345,0.051573123782873154,-0.08929155021905899,-0.001355816610157479,0.4470141530036926,-0.4782524108886706,10.265874862670898
1785983345.1133263,0.05952557921409607,-0.11504069715738297,-0.01875771768391131,0.6696973443031311,-0.2027332484722125,10.12108325958252
1785983345.1323612,0.037821874022483826,-0.1406790018081665,-0.028132962062954885,0.3917068541049957,-0.3892919421195971,10.370065689086914
1785983345.1513143,0.04494228959083557,-0.07132559269666672,-0.03186331689357757,-0.040813758969306946,-0.2540197074413287,10.625932693481445
1785983345.1779294,-0.003415164304897189,-0.051483277231454856,-0.056217879056930535,-0.8912674784660339,0.5801954269409193,10.635644912719727
1785983345.1939592,-0.05059516057372093,-0.021507196128368385,-0.048280902206897736,0.43318334221839905,0.032873600721360474,9.989124298095703
1785983345.213845,-0.08863285183906555,-0.001449595205485827,-0.05153881013393402,0.21454569697380066,-0.6284753680229175,9.850319862365723
1785983345.2326715,-0.08175110816955566,-0.02221360430121422,-0.040256425738334656,0.45460277795791626,-0.436882138252257,10.309410095214844
1785983345.2531626,-0.09459351003170013,-0.05324168503284455,-0.030417490750551217,-0.7271231412887573,0.35409128665924205,10.708409309387207
1785983345.2760677,-0.19821135699748993,-0.079889215528965,0.011511669494211684,-0.34852415323257446,0.4484036266803754,10.50160026550293
1785983345.2916427,-0.1791606992483139,-0.08977436274290085,0.010596738196909438,-0.16186630725860596,0.037381924688817306,10.065549850463867
1785983345.312726,-0.15260840952396393,-0.06851988285779953,0.0036009503528475844,0.2691331207752228,0.024704881012441105,11.237214088439941
1785983345.3327198,-0.10954505950212479,-0.021791644394397736,0.011402270756661895,-0.21739792823791504,0.43770459294319286,10.913630485534668
1785983345.3534014,-0.08373440057039261,0.030698169022798538,-0.0014412085292860902,0.239042729139328,-0.4771051406860339,10.464812278747559
1785983345.3756783,-0.050808995962142944,0.06718888133764267,-0.00976109132170678,0.6045966744422913,-0.18405628204345587,9.507993698120117
1785983345.3950186,-0.057433631271123886,0.1279999166727066,-0.02043596468865873,-0.30995646119117737,0.8286100625991835,10.799543380737305
1785983345.411808,-0.047730136662721634,0.16835573315620422,-0.005831596441566965,-0.9543870687484741,0.9738940596580518,10.273754119873047
1785983345.4336119,-0.06543751060962677,0.25117185711860657,-0.025645511224865945,-0.6646292805671692,1.066978216171266,10.372316360473633
1785983345.4527445,-0.0812806487083435,0.25248706340789795,-0.014872496947646172,-0.7479721307754517,1.0089185237884535,10.13162899017334
1785983345.4750905,-0.04042913392186165,0.27591753005981445,-0.0032002539373934607,0.5624614953994751,-0.39636552333831665,9.972983360290527
1785983345.4932811,0.06226016581058502,0.2788979411125183,-0.01409360952675346,1.309299111366272,-1.1545459032058705,9.385383605957031
1785983345.5134454,0.12984633445739746,0.32378092408180237,-0.02377745509147648,0.21595478057861328,-0.41065442562103144,10.547595977783203
1785983345.5323315,0.14227169752120972,0.34517428278923035,-0.025599466636776966,0.10346853733062744,0.021313510835171908,9.477269172668457
1785983345.5776122,0.2187568098306656,0.40749484300613403,-0.03296873345971112,-1.338482141494751,0.5957699418067945,10.663616180419922
1785983345.592382,0.3126591145992279,0.4217332601547241,-0.03997751325368886,-1.338482141494751,0.5957699418067945,10.663616180419922
1785983345.6111708,0.3248756527900696,0.42172762751579285,-0.04458567500114446,0.3585291802883148,0.1281906366348279,10.186898231506348
1785983345.633199,0.330255389213562,0.35001543164253235,-0.02344903163611893,0.5409411787986755,0.05027274787426122,10.344828605651855
1785983345.651149,0.30918771028518677,0.2695622444152832,-0.024140741676092183,0.5409411787986755,0.05027274787426122,10.344828605651855
1785983345.6750617,0.2730439305305481,0.21622371673583984,-0.019653595983982114,0.5409411787986755,0.05027274787426122,10.344828605651855
1785983345.6932523,0.25752872228622437,0.2106325328350067,-0.023425865918397928,0.5409411787986755,0.05027274787426122,10.344828605651855
1785983345.7132616,0.1916896551847458,0.2145485132932663,-0.01722057536244395,1.1772409677505493,0.33362835645675787,10.264786720275879
1785983345.7536275,0.1252717226743698,0.20541754364967346,-0.029157245531678224,0.4592472314834595,0.19460250437259805,10.556750297546387
1785983345.7912457,0.029491731896996498,0.15234801173210144,-0.029810890555381792,-0.07844159752130508,-0.10008236765861384,10.385133743286133
1785983345.8122253,0.008351210504770279,0.13210204243659973,-0.0339399464428425,0.9707553386688232,0.23088769614696625,10.035459518432617
1785983345.8319864,0.01776563562452793,0.1608220785856247,-0.02842017635703089,0.12224860489368439,-0.2264044880866992,10.162443161010742
1785983345.877704,0.024018043652176857,0.2404969483613968,-0.017800524830818204,0.5123181343078613,0.3275201022624981,9.734565734863281
1785983345.9126093,0.05190864950418472,0.2263941764831543,-0.0048561138100922385,0.5123181343078613,0.3275201022624981,9.734565734863281
1785983345.9319112,0.0788557156920433,0.2501009702682495,0.005890463478863209,1.2164584398269653,-0.07075167447328459,8.880472183227539
1785983345.9514825,0.10120847821235657,0.2657592296600342,-0.0016596266068518487,0.35281702876091003,-0.7602731585502613,9.399069786071777
1785983345.9776647,0.13191170990467072,0.21303397417068481,0.011849315837025616,-0.2879444360733032,-0.771392762660979,9.637767791748047
1785983345.9931948,0.16249948740005493,0.18747305870056152,0.00823498237878082,-0.056915283203125,0.11402326077222939,9.451741218566895
1785983346.012857,0.1764448881149292,0.15666793286800385,0.008400595746934395,-0.8076136112213135,0.06787698715925336,9.774532318115234
1785983346.052337,0.17176860570907593,0.07900672405958176,-5.6801771279434105e-05,-0.27955958247184753,0.6902077198028577,9.589978218078613
1785983346.0760002,0.15194343030452728,0.0219065323472023,0.001456743688322601,-0.27955958247184753,0.6902077198028577,9.589978218078613
1785983346.0913029,0.1257198452949524,-0.014276671223342419,-0.004764863289892672,-0.12149472534656525,-0.730873107910155,9.581313133239746
1785983346.1318614,0.13030415773391724,-0.1049983873963356,-0.004556004889309393,-0.48760002851486206,-0.022283948957918888,9.69773006439209
1785983346.153161,0.07078242301940918,-0.11899515986442566,-0.002160381991416201,-0.24661411345005035,-0.5587613582611073,9.4885835647583
1785983346.1764631,0.01945217326283455,-0.13950252532958984,-0.01007488649338482,0.4992896318435669,-0.5643910169601428,9.593222618103027
1785983346.2524908,-0.057616740465164185,-0.09612231701612473,-0.010467601008713233,-0.29529809951782227,-0.4881286919116962,9.499195098876953
1785983346.2769012,-0.059559427201747894,-0.0760449767112732,-0.001822323887608936,-1.1432582139968872,0.19974026083946347,9.858180046081543
1785983346.2924776,-0.04386081174015999,-0.030319422483444214,0.012843992561101917,-1.1432582139968872,0.19974026083946347,9.858180046081543
1785983346.3124166,-0.025941215455532074,-0.0176854096353054,0.01958873495459557,-1.1432582139968872,0.19974026083946347,9.858180046081543
1785983346.3336308,-0.006079315673559904,-0.02488438785076141,0.0280110277235508,-1.1432582139968872,0.19974026083946347,9.858180046081543
1785983346.3530285,0.04575413092970848,0.006395856849849228,0.03429245203733444,0.09245787560939789,-0.1356905996799457,9.799570083618164
1785983346.3927414,0.11915401369333267,0.03358693793416024,0.03703857958316802,-0.40728825330734253,-0.35058206319808843,9.481179237365723
1785983346.4132435,0.10155197232961655,0.02067523263394833,0.029405994340777394,-0.6346577405929565,-0.013917319476603244,9.944437026977539
1785983346.4323118,0.13184316456317902,0.01848608255386353,0.021154254674911496,-0.6346577405929565,-0.013917319476603244,9.944437026977539
1785983346.4522114,0.14565886557102203,0.028381628915667537,0.02685633301734924,-0.6346577405929565,-0.013917319476603244,9.944437026977539
1785983346.4777477,0.10816001147031784,-0.003912496380507943,0.02096967212855816,0.30434727668762207,-0.39641019701957586,9.719427108764648
1785983346.5124903,0.08495953679084778,-0.0518479086458683,0.013805194757878787,-2.046795129776001,1.726078510284425,9.849981307983398
1785983346.5313218,0.037231896072626114,-0.05564163997769356,0.013015565462410457,-0.5506327152252197,0.3115904033184064,9.82648754119873
1785983346.553555,-0.01046688947826624,-0.0918394923210144,0.014834185130894195,-0.5460461378097534,0.09045367687940721,10.066858291625977
1785983346.5763824,-0.028210004791617393,-0.0953766405582428,0.007281797938048851,-0.5460461378097534,0.09045367687940721,10.066858291625977
1785983346.5917494,-0.07126171141862869,-0.098472461104393,0.012679843232035649,-1.0977528095245361,0.521027982234956,9.636214256286621
1785983346.613378,-0.11800657957792282,-0.08734825253486633,0.006133226212114106,-1.0977528095245361,0.521027982234956,9.636214256286621
1785983346.6525614,-0.13388888537883759,-0.09656237065792084,0.0037565284874290345,-0.009883098304271698,0.22714002430439115,9.713471412658691
1785983346.6753457,-0.13025160133838654,-0.1207420825958252,0.018323771655559554,-0.44158801436424255,-0.24241131544113037,9.892928123474121
1785983346.6936407,-0.1021382138133049,-0.10370118170976639,0.002677862066775573,-0.6164834499359131,0.9605184793472302,9.85892391204834
1785983346.732283,-0.097413070499897,-0.032897744327783585,0.0023854305036366025,-1.2683237791061401,0.3862976729869854,9.565003395080566
1785983346.7532291,-0.0684381052851677,-0.03911380097270012,0.0016014452558010864,-0.321221262216568,0.5624258518219006,9.930719375610352
1785983346.7753468,-0.032241225242614746,-0.03135642409324646,-0.008879998698830601,-0.5653109550476074,0.9800534844398511,9.683932304382324
1785983346.793402,-0.04074554145336151,-0.02676314488053322,-0.005661508999764916,-0.6436501741409302,0.13387523591518521,9.787226676940918
1785983346.8114398,-0.04652310907840729,-0.01031160168349743,-0.01802939921617508,-0.45320844650268555,-0.047066956758497924,9.989855766296387
1785983346.8335302,-0.04831996560096741,-0.049946822226047516,-0.008113349787890904,-0.10412672162055969,0.31744343042373774,9.597249984741211
1785983346.852448,-0.06409944593906403,-0.04630759358406067,-0.01481145247817039,-1.1704334020614624,-0.8884476423263538,9.894710540771484
1785983346.8753562,-0.09052451699972153,-0.04271278530359268,0.0014940935652703099,0.11919528990983963,-0.4719775021076191,9.365588188171387
1785983346.8934839,-0.09179899841547012,-0.051649801433086395,-0.0007962556555867132,0.47991126775741577,-1.3255940675735463,9.45443058013916
1785983346.9132884,-0.08289378136396408,-0.05097460746765137,0.005821498576551682,-0.12944772839546204,0.09497520327568175,9.91422176361084
1785983346.9316883,-0.08270729333162308,-0.044991783797740936,0.011453094892203813,-1.290598750114441,0.8205899000167859,10.123363494873047
1785983346.9517078,-0.06456205248832703,-0.025784004479646683,0.007955254055559639,-0.7025067806243896,-0.35045462846755865,9.576614379882812
1785983346.975709,-0.029165782034397125,-0.009768441319465634,0.022350622341036797,-0.5910870432853699,0.3923511207103741,9.693977355957031
1785983346.9923303,-0.03701811283826828,0.005280300043523313,0.014967663213610649,0.4412956237792969,-0.14847576618194466,9.251215934753418
1785983347.0124328,-0.018119806423783302,0.006129943765699865,0.014371422119438648,-0.2710886597633362,0.3923020064830792,9.842085838317871
1785983347.0319934,0.021556999534368515,0.0443086251616478,0.010001072660088534,-0.5014198422431946,0.30039596557617304,9.717252731323242
1785983347.0514438,0.032545413821935654,0.05540728569030762,0.01948197185993194,-2.4562571048736572,-0.19935780763625974,10.18593692779541
1785983347.0776918,0.031063640490174294,0.0606125146150589,0.003474360099062316,-0.9116058349609375,0.28061413764953735,9.992607116699219
1785983347.0925252,0.06777224689722061,0.04919438064098358,0.007065570913255209,0.3695143461227417,-0.03691676259040714,9.70807933807373
1785983347.1135545,0.048571061342954636,0.030814113095402718,0.0007381479372270367,0.19460263848304749,0.7942513227462781,9.796875
1785983347.1324377,0.05405600741505623,0.02164122648537159,0.01018382981419563,-0.5687904953956604,-0.06563448905944705,9.788260459899902
1785983347.152253,0.04165913164615631,0.02235480211675167,-6.132468115541096e-06,-1.1176706552505493,-0.41372975707054016,10.041557312011719
1785983347.174707,0.03847961127758026,0.014999736100435259,0.010826531797647474,-0.9268501400947571,1.3574928045272838,9.925033569335938
1785983347.1932957,0.021074509248137474,0.012888116762042046,0.0064765694551169855,-1.1655874252319336,0.9172813892364514,10.004767417907715
1785983347.2122707,0.01592160202562809,0.010403267107903959,0.015665948390960693,0.21609623730182648,-0.48794475197791937,9.502579689025879
1785983347.2323308,0.03608034923672676,0.01897138543426991,0.014635229483246802,-0.33699148893356323,-0.02045729756355169,9.51418685913086
1785983347.2534554,0.06134090945124626,-0.01356571353971958,0.01718902960419655,-0.6490615010261536,0.8951547145843518,9.86884593963623
1785983347.2779844,0.07509180158376694,-0.017465680837631222,0.015475005842745306,-1.3373866081237793,0.35664537549018976,9.727625846862793
1785983347.2945588,0.06871802359819412,-0.03152933716773987,0.01674715802073479,-1.1347901821136475,0.8054639101028455,9.97204303741455
1785983347.3114827,0.07948116213083267,-0.020136523991823196,0.005632270593196156,0.01309896633028984,-0.9485032558441151,9.346216201782227
1785983347.33336,0.06218704208731651,-0.021250944584608078,0.005466574337333443,0.12617000937461853,-0.5775089263916005,9.361851692199707
1785983347.3526032,0.053099311888217926,-0.004247111268341541,0.0003254915936850017,-1.1063376665115356,0.504085421562196,9.736722946166992
1785983347.376057,0.05576770007610321,-0.04086564481258392,0.006085902918130165,-1.1063376665115356,0.504085421562196,9.736722946166992
1785983347.3913157,0.012024001218378544,-0.029539495706558228,-0.0018074051477014982,-0.175420343875885,-1.2370277643203724,9.575279235839844
1785983347.4134552,0.0017287685768678784,-0.03538855165243149,-0.010459681041538712,-0.6148260235786438,0.3000307083129895,9.752204895019531
1785983347.4333935,-0.023776816204190254,-0.027085453271865845,0.001625067321583632,0.13001655042171478,-0.35541588068008306,9.616293907165527
1785983347.4514709,-0.0366193987429142,-0.023253386840224266,0.007844454608857635,-0.6133070588111877,0.06771396100521204,9.546157836914062
1785983347.4926233,-0.0852532684803009,0.014476697891950607,0.005421711597591637,-0.11383990943431854,0.743239760398866,9.552032470703125
1785983347.512552,-0.08729613572359085,0.009965632110834123,0.014059015549719332,-0.25518858432769775,0.8169921636581432,9.476127624511719
1785983347.5313249,-0.0723656639456749,0.034075744450092316,0.010186036117374894,-0.7669181823730469,0.4367171227931988,9.704212188720703
1785983347.5534017,-0.06406296789646149,0.04447239637374878,0.01690013147890567,-0.9466013312339783,-0.5164818763732898,9.60685920715332
1785983347.575633,-0.06765880435705185,0.04064830392599106,0.001258751843124623,-1.1313323974609375,0.11661826074123502,9.68933391571045
1785983347.593371,-0.05694957822561264,0.0533062145113945,0.001803682884201401,-0.6495804190635681,0.5264800786972058,9.616971969604492
1785983347.6124594,-0.06796150654554367,0.03880386799573898,0.0009305087733082426,-0.6335703730583191,0.07460173964500548,9.828206062316895
1785983347.631514,-0.07944879680871964,0.023676807060837746,0.005343047901988027,-0.6591829061508179,-0.20588219165801885,9.58535385131836
1785983347.6519058,-0.0821494609117508,0.018544914200901985,0.0076538217253982995,0.37252408266067505,-0.23218989372253301,9.503015518188477
1785983347.6769006,-0.06717215478420258,0.01030517276376486,0.010245966725051401,0.03442799299955368,1.3171544075012218,9.646564483642578
1785983347.6934502,-0.06987477838993073,-0.0017084716819226729,0.009850936010479927,-0.5331616997718811,0.5497326850891125,9.808915138244629
1785983347.713393,-0.07884537428617477,-0.013043271377682686,0.005703023169189693,-2.227956771850586,0.9872448444366467,10.119467735290527
1785983347.7324662,-0.07805981487035751,-0.029033774510025978,0.007474810350686315,0.8593200445175171,0.38727071881294367,9.438661575317383
1785983347.752348,-0.09746954590082169,-0.041758932173252106,0.0038685414474457554,-0.15789656341075897,0.9659091234207166,9.753331184387207
1785983347.77653,-0.08607172966003418,-0.015565702691674229,0.02335167117416859,-0.7106992602348328,-0.4462455809116352,9.659963607788086
1785983347.7923133,-0.05736184120178223,-0.014217376708984373,0.016824329271912578,-1.4142944812774658,0.05295859277248501,9.693361282348633
1785983347.811474,-0.04950692877173424,-0.027113277465105053,0.023951884359121326,0.7951902151107788,0.19241744279861567,9.487424850463867
1785983347.8335238,-0.031126296147704124,-0.026327373459935185,0.019943816587328914,-0.00045954808592796326,-0.09904527664184452,9.604397773742676
1785983347.853484,-0.020931879058480263,-0.03642566129565239,0.009715467691421514,-0.00045954808592796326,-0.09904527664184452,9.604397773742676
1785983347.875186,-0.012468080036342144,-0.008188359439373016,0.006342966575175525,-0.00045954808592796326,-0.09904527664184452,9.604397773742676
1785983347.8920047,-0.009908176027238369,0.009389556944370272,0.015552868135273455,-0.5941437482833862,0.7930525541305554,9.980037689208984
1785983347.9113357,-0.03673270344734192,0.043543215841054916,0.011725987307727332,0.24661467969417572,0.1473002731800091,9.539401054382324
1785983347.9324348,-0.03962986543774605,0.04462655261158943,0.0068121515214443155,-0.9613093137741089,0.5524616837501538,9.714971542358398
1785983347.953435,-0.048895664513111115,0.04233992472290993,0.0038859457708895154,-0.17910976707935333,0.06989502906799432,9.456666946411133
1785983347.977825,-0.05852577090263367,0.05269061028957367,0.013120594434440129,-0.3102661967277527,0.3831262290477765,9.796601295471191
1785983348.011379,-0.09655574709177017,0.01878888532519341,0.017279900610446926,-1.9198426008224487,1.006699919700624,10.191100120544434
1785983348.0325787,-0.07300219684839249,0.012566737830638887,0.02003488689661026,-0.841023325920105,0.650508761405946,9.840210914611816
1785983348.0534835,-0.06068625673651695,-0.0044871037825942005,0.030297381803393364,0.12582260370254517,-0.5755404233932483,9.66386890411377
1785983348.0769017,-0.021227089688181877,0.00011943234130740415,0.0203494131565094,0.6346475481987,-0.0702470242977131,9.289399147033691
1785983348.092017,0.029386289417743683,-0.010277487337589259,0.03626497462391853,1.1324821710586548,0.8087476491928112,9.300224304199219
1785983348.111974,0.04817677289247513,-0.0015623441431671342,0.03216302767395973,1.1324821710586548,0.8087476491928112,9.300224304199219
1785983348.1312985,0.07570213079452515,0.03221892938017846,0.038933016359806054,-0.39575013518333435,-0.17485520243644592,10.0252046585083
1785983348.152411,0.1186864823102951,0.030285635963082317,0.03616529330611228,-0.39575013518333435,-0.17485520243644592,10.0252046585083
1785983348.1775258,0.11378534883260727,0.023439725860953334,0.036262836307287216,-1.5004732608795166,0.3342339396476757,9.407410621643066
1785983348.1947293,0.10150370001792908,0.03142108768224717,0.037669029086828225,-0.41115543246269226,0.10580593347549556,9.686078071594238
1785983348.2134705,0.11948070675134659,0.04199514165520669,0.03719842061400413,-1.1727179288864136,0.6544042825698865,9.810307502746582
1785983348.2315073,0.11387977749109268,0.056465659290552146,0.034390140324831,-0.19791989028453827,-0.09379220008849982,9.437244415283203
1785983348.251203,0.052000485360622406,0.03727615624666215,0.02878882549703121,0.275009423494339,-0.35414806008338806,9.813448905944824
1785983348.2769504,-0.0031847490463405848,0.045700669288635254,0.02797834947705268,0.275009423494339,-0.35414806008338806,9.813448905944824
1785983348.2923222,-0.02071942761540413,0.022907996550202373,0.02661534212529659,1.694309115409851,-0.3336468935012805,9.796622276306152
1785983348.313295,-0.03388652950525284,0.017127813771367077,0.01815305836498737,1.694309115409851,-0.3336468935012805,9.796622276306152
1785983348.3314342,-0.0377873070538044,-0.017015293240547177,0.017980057746171955,-0.09625715017318726,0.2850868701934826,9.68193244934082
1785983348.3536239,-0.03911653533577919,-0.014308648183941841,0.004700440913438799,1.4980049133300781,0.25624841451645014,9.58801555633545
1785983348.3767316,-0.04949071630835533,-0.04648912325501442,0.009184200316667562,-0.8660139441490173,0.48895791172981384,9.824738502502441
1785983348.3926566,-0.061930831521749496,-0.0531567707657814,-0.007073633838444941,0.13838127255439758,-0.09818635880946994,9.75487995147705
1785983348.4116225,-0.06805022805929184,-0.062306471168994904,-0.004357706289738409,-0.6977719068527222,0.27556055784225586,10.026501655578613
1785983348.4535296,-0.0879708081483841,-0.01830381527543068,-0.005966830067336557,0.09183288365602493,-0.8098144531249989,9.444849014282227
1785983348.513654,-0.06824574619531631,-0.039746638387441635,-0.004986446350812907,-0.22171549499034882,0.148494601249696,9.623395919799805
1785983348.5323648,-0.04586076736450195,-0.05462541803717613,-0.0012734399642795257,-0.6734776496887207,0.23068319261074188,9.907504081726074
1785983348.5528274,-0.06906622648239136,-0.06139257177710533,0.0031342871952802017,-0.25528326630592346,0.823644280433656,9.820313453674316
1785983348.576705,-0.04945320263504982,-0.0511944480240345,0.00155181577429176,-1.021339774131775,0.22868828475475433,9.985563278198242
1785983348.6115103,-0.02958277240395546,-0.030300572514533997,-0.007372471969574686,0.6704503297805786,0.09020096063614012,9.821375846862793
1785983348.652707,-0.0002578117127995938,-0.056506842374801636,-0.01211016904562711,-0.6039905548095703,0.11044123768806574,9.512837409973145
1785983348.6763217,-0.011658911593258381,-0.05566370487213135,0.003420566674321897,-1.3952125310897827,-0.39474132657050964,9.87920093536377
1785983348.6919918,-0.004466284066438675,-0.053573478013277054,-0.008143572136759751,0.9564054012298584,-0.1118173897266376,9.798001289367676
1785983348.7120183,0.02099078707396984,-0.06800615787506104,-0.0034142693039029754,-0.9629119634628296,-0.07285839319229008,9.643040657043457
1785983348.7339478,0.0196448415517807,-0.0862685814499855,-0.017036795616149892,-0.6763540506362915,-0.23483972251415136,9.481412887573242
1785983348.7524066,0.00967452209442854,-0.11558277904987335,-0.0040697287768125395,-0.3541567325592041,0.33930754661560175,9.725787162780762
1785983348.7758002,0.03246435523033142,-0.10628170520067215,-0.014358103275299058,0.3167944848537445,-0.17378889024257538,9.888565063476562
1785983348.7935977,0.02332036755979061,-0.089003786444664,-0.005637955386191595,-1.1754525899887085,0.4036626219749463,9.777085304260254
1785983348.812588,0.013135950081050396,-0.0800565779209137,-0.008471653796732415,-0.1583721786737442,-0.3184611201286304,9.294629096984863
1785983348.831506,0.014888269826769829,-0.06710723787546158,-0.009551817551255217,0.6321743726730347,0.6435636281967175,9.939237594604492
1785983348.854634,0.0291301142424345,-0.02221101522445679,-0.015399461612105366,0.6111308336257935,1.2139894962310802,9.878538131713867
1785983348.8767936,0.02440354973077774,-0.0005820174701511862,-0.0016012045089155436,-0.9815901517868042,-0.19558869302272677,9.76978874206543
1785983348.8925748,0.03867708146572113,0.036971695721149445,-0.0024526966735720678,-0.02805943414568901,0.19403135776519892,9.59117317199707
1785983348.9133835,0.08115502446889877,0.029139529913663864,0.002683041617274281,-0.13193415105342865,0.6739546060562146,9.923311233520508
1785983348.9334931,0.07809040695428848,0.021521348506212234,0.004404153209179637,-1.1446837186813354,0.23804011940956235,9.840875625610352
1785983348.951916,0.06564435362815857,0.057106297463178635,0.01539949141442775,-0.09362250566482544,-0.5284600853919971,9.818108558654785
1785983348.9777968,0.03155066817998886,0.06762368977069855,0.01873726770281791,0.17103782296180725,-0.3507755994796741,9.53360652923584
1785983349.0125017,-0.03842587023973465,0.060794249176979065,0.027337012812495225,-0.1239757239818573,0.308431386947633,9.532822608947754
1785983349.0524507,-0.060804709792137146,0.04165252670645714,0.02373532578349113,-1.2615138292312622,0.7814034223556531,9.582975387573242
1785983349.0934095,-0.0656311959028244,0.02683784812688828,0.0231504775583744,0.060346659272909164,0.3464715778827679,9.523841857910156
1785983349.1123676,-0.03336288034915924,0.034676287323236465,0.024862825870513913,0.012665875256061554,-0.47569859027862427,9.833806037902832
1785983349.1317625,-0.02529379352927208,0.04511445760726929,0.02043133415281772,-0.4971434772014618,0.21603161096572995,9.676347732543945
1785983349.1518009,-0.03123847208917141,0.03283288329839707,0.030851146206259724,-0.9059417247772217,0.27168133854866144,9.5353364944458
1785983349.177751,-0.006921371445059776,0.05527271330356598,0.022103168070316308,1.2450523376464844,-0.056754067540167534,10.00390625
1785983349.1929553,0.000962750636972487,0.030503336340188984,0.025326950475573536,-2.9557807445526123,0.7560712695121777,9.957123756408691
1785983349.2125928,-0.02412254549562931,0.01478951703757048,0.030754333361983296,0.7738421559333801,-0.8196024894714343,9.690253257751465
1785983349.2318952,-0.030773883685469627,0.03121784701943398,0.02622597850859165,0.04751477763056755,-1.1135001182556141,9.573175430297852
1785983349.2518075,-0.013367223553359509,0.028970010578632355,0.01227849721908569,-0.6213802099227905,-0.03876347839832184,9.948273658752441
1785983349.2755797,-0.0179927758872509,0.00014795572496950976,0.028541715815663338,-0.5850672721862793,0.3975580334663403,9.560555458068848
1785983349.2919762,-0.04963459074497223,-0.011348551139235495,0.01847998797893524,-0.27849477529525757,0.29145893454551813,9.50601863861084
1785983349.3114681,-0.047770433127880096,0.00025314977392554554,0.022309869527816772,-0.1854838728904724,0.24116408824920774,9.778029441833496
1785983349.3334842,-0.026984337717294693,-0.05007520690560341,0.014151849783957011,-0.2909277379512787,0.25394585728645447,9.755273818969727
1785983349.3524714,-0.04210267215967178,-0.06344272196292877,0.02136448025703431,-0.6304308176040649,0.7259126901626599,9.818156242370605
1785983349.3758478,-0.016689544543623924,-0.06653927266597748,0.008387045934796342,-0.6814088225364685,-0.1039399057626712,10.00197696685791
1785983349.4126234,0.011904537677764893,-0.07627569139003754,0.00352178537286819,0.08232352137565613,-0.4050418734550464,9.762353897094727
1785983349.4319274,0.020357633009552956,-0.10034260898828506,0.005251611117273581,-0.9329928755760193,0.13070407509803894,9.979246139526367
1785983349.4525802,0.013338059186935425,-0.08820243924856186,-0.00618976866826414,0.07399293780326843,-1.0336430072784413,9.584428787231445
1785983349.4758642,0.021775975823402405,-0.09745747596025467,0.00785082019865514,-0.28616631031036377,-0.006614483892916459,9.586954116821289
1785983349.4934092,0.029625197872519493,-0.0669233649969101,-0.0027541080489754594,-2.624183177947998,0.2622053623199475,9.860383987426758
1785983349.511864,0.017849087715148926,-0.0688181072473526,0.004651980474591264,0.8627907037734985,-0.8643091917037952,9.690736770629883
1785983349.5333173,0.0177338607609272,-0.04769318178296089,-0.0039664795622229515,-0.43892142176628113,1.1778519153594982,9.236668586730957
1785983349.553574,0.02121301367878914,-0.049785759299993515,0.010702900588512428,0.508878231048584,-1.1578744649887074,9.763148307800293
1785983349.577345,0.011640832759439945,-0.033751532435417175,0.002011381555348639,0.3157680034637451,0.09641321003437164,9.969493865966797
1785983349.6142497,0.038794972002506256,-0.011560854502022266,-0.0038776583969593035,-0.9344339370727539,0.6710641980171216,9.81515884399414
1785983349.6322882,0.025231849402189255,0.008850323036313057,-0.0018690640572458516,0.32592636346817017,-0.7496185302734363,9.726532936096191
1785983349.6518147,0.02789694257080555,0.021251734346151352,-0.003778936108574274,-0.8401155471801758,0.7028443813323987,9.760235786437988
1785983349.678145,0.023436307907104492,0.03228025883436203,0.0047514238394796805,-0.6963419914245605,-0.09310707449912907,9.622855186462402
1785983349.693496,-0.00979327317327261,0.032766323536634445,-0.0021590034011751452,-1.2819684743881226,0.9140948057174695,9.704877853393555
1785983349.7128098,-0.0012918319553136826,0.02081950753927231,-0.006974388379603627,0.6436089277267456,0.17962771654129148,9.705842971801758
1785983349.7333078,-0.004767124075442553,0.008028920739889143,-0.012111620977520944,0.7103571891784668,-0.9877592325210559,9.567551612854004
1785983349.7526267,-0.019344966858625412,-0.008959231898188591,0.002463957760483028,-0.8977468013763428,1.5072482824325573,9.67719841003418
1785983349.7755945,-0.023375943303108215,-0.03197930008172989,-0.0042331046424806075,1.8495395183563232,0.34102612733841065,9.850406646728516
1785983349.7937021,0.00028119352646172047,-0.04020889848470688,-0.0014881367096677373,-1.412935733795166,1.0172085762023937,9.932024002075195
1785983349.814189,0.0002939357073046267,-0.02664981223642826,0.0038822060450911557,-1.203423261642456,-0.17758390307426336,9.607184410095215
1785983349.832573,-0.00014258474402595311,-0.008915701881051064,-0.0053630075417459,1.3963581323623657,0.43869361281395075,9.727603912353516
1785983349.8525393,-0.009085939265787601,-0.007945723831653595,-0.0026883818209171286,1.3963581323623657,0.43869361281395075,9.727603912353516
1785983349.8755062,-0.02521567791700363,0.01948503404855728,-0.0012654139427468205,0.40425795316696167,-0.020191155374048947,9.747772216796875
1785983349.893471,0.0027869949117302895,0.04389103502035141,-0.008095761761069303,-0.1783282458782196,-0.17674115300178408,9.856009483337402
1785983349.913325,0.018209189176559448,0.03797686845064163,-0.004349126014858489,-0.5831401348114014,-0.2584015429019916,9.937524795532227
1785983349.9753454,0.03452624753117561,0.007785367313772439,-0.007211764343082906,0.26769179105758667,0.03384756296873212,9.750495910644531
1785983350.0136795,-1.6551537555642426e-05,-0.013023562729358675,-0.008141595870256422,-1.3873677253723145,0.5377077460289014,9.958252906799316
1785983350.0342958,0.0097725298255682,-0.0042692404240369805,-0.00995158776640892,-0.6846699714660645,0.323739290237428,9.818632125854492
1785983350.0528734,0.017916562035679817,-0.02766367420554161,-0.009615707211196419,-1.4137626886367798,-1.2885756492614735,9.899494171142578
1785983350.0759943,-0.003640140639618039,-0.02949867583811283,-0.013483894988894459,0.19728779792785645,-0.1811404824256885,9.71403694152832
1785983350.0939903,0.009431613609194756,-0.023925721645355225,-0.011181932874023911,-1.0472583770751953,0.28599464893341187,9.999227523803711
1785983350.1118972,0.0062149944715201855,-0.010421888902783396,-0.011488804593682287,-0.03800409287214279,-0.18638047575950503,9.684821128845215
1785983350.1335082,-0.028747187927365303,-0.017999675124883655,-0.019142340868711468,-0.27629297971725464,-0.22031536698341253,9.598312377929688
1785983350.1529427,-0.04072210565209389,0.01616202667355537,-0.01993442885577679,-0.48616644740104675,0.22533641755581021,9.858609199523926
1785983350.1748466,-0.015123914927244186,-0.011352254077792171,-0.027709634974598885,-0.648202121257782,0.5232067704200757,9.636792182922363
1785983350.212539,-0.07038527727127075,-0.007206957321614031,-0.03525298088788986,-0.41894182562828064,0.2619580626487744,9.944238662719727
1785983350.2319236,-0.05711853504180908,-0.02629593573510647,-0.03953273594379425,-0.9283379316329956,0.397856801748277,9.8307466506958
1785983350.251403,-0.06426441669464111,-0.017213806509971622,-0.038896605372428894,-0.5291914343833923,0.4537914395332348,9.54959487915039
1785983350.2778506,-0.06023450940847397,-0.0008074336219579023,-0.03336803987622261,-0.5291914343833923,0.4537914395332348,9.54959487915039
1785983350.2940423,-0.03874431923031807,-0.02706247568130494,-0.04346904158592224,-1.1185262203216553,0.25055176019668696,9.406765937805176
1785983350.3335855,0.006680173333734274,-0.019155738875269893,-0.037812698632478714,0.0690673366189003,0.22854381799697995,9.665061950683594
1785983350.3535984,0.024066876620054245,-0.02208001911640168,-0.045311834663152695,-0.4861489236354828,-0.24584558606147647,9.855034828186035
1785983350.3769157,0.04480557516217232,-0.017927290871739394,-0.0452401228249073,0.9454925656318665,-0.148405075073241,9.713332176208496
1785983350.391734,0.04884371533989906,-0.01661216095089913,-0.043369315564632416,0.9454925656318665,-0.148405075073241,9.713332176208496
1785983350.4139752,0.051304321736097336,-0.007126577664166695,-0.05170218273997307,-0.5482282042503357,0.28134337067604187,9.883600234985352
1785983350.4337592,0.07892497628927231,-0.00986419431865216,-0.05730573460459709,-0.35602515935897827,0.27637332677841303,9.663315773010254
1785983350.452329,0.0979575663805008,0.0005595693364739352,-0.05397408455610275,-1.3218249082565308,1.348461389541627,9.947789192199707
1785983350.477302,0.08239790052175522,0.04688283428549766,-0.0679403692483902,-0.7995591759681702,-0.09000783413648485,9.875868797302246
1785983350.4934323,0.07011600583791733,0.06122846156358718,-0.06427240371704103,-0.6861098408699036,0.32293540239334223,9.702557563781738
1785983350.51423,0.06216694414615631,0.0477689504623413,-0.08258877694606781,-0.4890352785587311,0.3446769416332257,9.769204139709473
1785983350.5334473,0.03483423590660095,0.043459691107273095,-0.07921913266181946,0.1667349934577942,0.28210440278053406,9.778474807739258
1785983350.552958,0.025950880721211433,0.06787182390689848,-0.08328887820243837,-0.7098915576934814,0.16423462331295136,10.037853240966797
1785983350.5779018,0.017824243754148483,0.049515452235937105,-0.10087256133556366,-0.8231774568557739,0.4416499435901654,9.831720352172852
1785983350.5926297,0.011176812462508678,0.0567396469414234,-0.09527820348739625,-0.7113737463951111,-0.30004337430000183,9.958443641662598
1785983350.6117098,0.013375318609178066,0.06821482628583907,-0.10432881116867067,-0.41038334369659424,0.3846575617790234,9.51695442199707
1785983350.6337938,-0.0053406632505357265,0.045340716838836656,-0.10935844480991364,-0.197780579328537,0.3632395565509808,9.669342994689941
1785983350.6531951,-0.008971425704658031,0.04630972072482108,-0.12104170024394989,0.4653446674346924,-0.16083446145057564,9.388723373413086
1785983350.6752667,-0.008169533684849739,0.007147906813770517,-0.12705014646053314,-0.4984559118747711,-0.11410158127546187,10.061668395996094
1785983350.691539,-0.015956493094563484,0.0011133488733321261,-0.13634927570819855,1.2329535484313965,-1.3803571462631212,9.983941078186035
1785983350.7119675,-0.0064020357094705105,-0.012581210583448427,-0.13569708168506622,-0.7434049844741821,0.655688762664796,9.359929084777832
1785983350.7334886,-0.04016952961683273,-0.030184077098965662,-0.14056546986103058,-0.931787371635437,1.1255698204040538,9.535563468933105
1785983350.7525914,-0.05105850473046303,-0.0051302704960107985,-0.15204934775829315,-0.2962179481983185,0.16129507124424103,9.923954963684082
1785983350.7779245,-0.05040144920349121,-0.016316410154104254,-0.15895164012908936,-0.3261953890323639,0.24914884567260864,10.051304817199707
1785983350.7928987,-0.051993563771247864,-0.0036513865925371846,-0.16249696910381317,-0.9918823838233948,0.44746738672256586,9.582889556884766
1785983350.8115819,-0.06555076688528061,0.008451351895928362,-0.16577796638011932,-0.32697775959968567,0.5877377986907971,10.065895080566406
1785983350.832927,-0.05680639296770096,0.004828283563256242,-0.1754741668701172,-0.3708357512950897,-0.28617197275161627,9.396574974060059
1785983350.8525314,-0.046195585280656815,0.010459818877279736,-0.18196527659893036,-0.9481112957000732,1.0023713111877453,9.779980659484863
1785983350.8777547,-0.03771992772817612,0.0035417238250374555,-0.19650079309940338,0.060687106102705,-0.11263845860957981,9.609935760498047
1785983350.9125164,-0.02161910943686962,-0.02449802495539191,-0.21943087875843048,0.9205252528190613,0.5973817706108105,9.675439834594727
1785983350.931515,-0.032932840287685394,-0.01721556484699252,-0.22651134431362152,-0.1651797890663147,0.2937162518501294,9.747952461242676
1785983350.9528449,-0.03491070866584778,-0.012827995233237773,-0.23385776579380035,-0.45472604036331177,0.6141324043273938,9.654603004455566
1785983350.9769666,-0.01272678468376398,-0.026335855945944814,-0.2404460906982422,-0.21479949355125427,0.05229154974222303,9.7821044921875
1785983350.9920943,0.011800302192568779,-0.027233604341745408,-0.25081586837768555,0.03938918933272362,-1.0951110124588,10.026554107666016
1785983351.0123096,-0.015544119291007519,-0.05042265728116038,-0.2527209520339966,-0.5822111964225769,0.06791771948337673,9.686471939086914
1785983351.052569,-0.011347838677465916,-0.06401669234037402,-0.27374452352523804,-0.7523035407066345,0.5544459819793713,9.849562644958496
1785983351.0935497,-0.013244678266346455,-0.03453280404210094,-0.28905022144317627,-0.2184097170829773,0.45923489332199213,9.733782768249512
1785983351.1130316,-0.027388766407966614,-0.04714100435376171,-0.2895987331867218,0.15588100254535675,-0.14572231471538424,9.743573188781738
1785983351.132063,-0.006034755613654852,-0.05505642667412761,-0.3070606589317322,0.06517554819583893,0.10828185081482054,9.811055183410645
1785983351.177721,-0.015308824367821217,-0.03217747807502751,-0.31732872128486633,0.18130084872245789,-0.5331079959869374,9.50963306427002
1785983351.1928568,-0.01579575426876545,-0.027277702465653458,-0.3176530599594116,-1.1384198665618896,1.0698255300521862,9.615447044372559
1785983351.2119203,0.010388573631644249,-0.04342051222920422,-0.33074650168418884,0.7118659615516663,-0.736281633377074,9.775622367858887
1785983351.2317698,0.011365743353962898,-0.047202207148075145,-0.34494471549987793,-0.6175093650817871,0.6939387321472179,9.512791633605957
1785983351.2534614,0.018953371793031693,-0.016083359718322796,-0.3392232358455658,-0.6175093650817871,0.6939387321472179,9.512791633605957
1785983351.2761788,0.03248274326324463,-0.0199469774961472,-0.35866665840148926,1.4914296865463257,-0.20892857015132787,9.628064155578613
1785983351.29249,0.040818143635988235,-0.008698369376361415,-0.36928269267082214,-2.0877161026000977,1.2529704570770275,9.957165718078613
1785983351.312247,0.03323613479733467,-0.006056184880435512,-0.36635202169418335,0.24945765733718872,0.012939639389516122,9.791890144348145
1785983351.3337805,-0.00759269529953599,0.002096234820783092,-0.37927672266960144,0.17298732697963715,-0.0753902941942203,9.797632217407227
1785983351.3529956,-0.01810276135802269,-0.006679128855466891,-0.39373961091041565,-0.25675565004348755,-0.1927442103624332,9.687427520751953
1785983351.375674,-0.016382016241550446,-0.019400898367166568,-0.4028443992137909,0.009028598666191101,-0.16695307195186496,9.723732948303223
1785983351.391657,-0.045564137399196625,-0.026217127218842555,-0.4044632017612457,-0.4854159951210022,-0.12668715417384982,9.714832305908203
1785983351.4120708,-0.07124961912631989,-0.042613327503204394,-0.41305163502693176,-0.728375256061554,0.3413244485855114,9.322775840759277
1785983351.4345272,-0.054062094539403915,-0.04980376362800604,-0.42578157782554626,0.5401612520217896,-1.3399314880371083,9.621734619140625
1785983351.4536254,-0.05299990624189377,-0.05098174512386327,-0.4169018864631653,0.5401612520217896,-1.3399314880371083,9.621734619140625
1785983351.4758534,-0.057924721390008926,-0.029396506026387267,-0.42089349031448364,-0.1732700914144516,0.13692644238472101,9.455606460571289
1785983351.4921741,-0.04830640181899071,-0.038635477423667956,-0.4222784638404846,-0.23910468816757202,-0.6089414358139027,9.380105972290039
1785983351.512827,-0.04024852067232132,-0.03779104351997381,-0.43409696221351624,0.5774018168449402,-0.4485739469528187,9.259629249572754
1785983351.5315795,-0.015303914435207844,-0.003383724717423373,-0.4363858103752136,-0.9294313788414001,0.24989444017410395,9.596597671508789
1785983351.5537271,0.01350485160946846,0.007150334306061214,-0.4395480751991272,-1.5421677827835083,0.09654919803142667,9.779553413391113
1785983351.5756922,0.04370613396167755,0.02764740772545332,-0.4420136511325836,0.3029683530330658,-1.6574609279632557,9.446391105651855
1785983351.5936997,0.06669794023036957,0.08062928915023798,-0.43998295068740845,0.26151612401008606,0.1290459334850323,9.518404006958008
1785983351.611907,0.08206453174352646,0.09758309274911875,-0.4432418942451477,-0.1944878250360489,-0.48441976308822515,9.709334373474121
1785983351.633614,0.07238508760929108,0.09980624169111246,-0.44494983553886414,-0.41387417912483215,-0.2854064106941211,9.852127075195312
1785983351.652789,0.07534732669591904,0.10990305989980692,-0.4405949115753174,-0.5984480977058411,1.1392440795898449,9.347003936767578
1785983351.675487,0.06518247723579407,0.11124935746192927,-0.446254700422287,1.3868614435195923,-1.8550323247909533,10.102534294128418
1785983351.6937852,0.08449206501245499,0.11336312443017954,-0.4613367021083832,-0.3153464198112488,-0.27299338579177734,9.936607360839844
1785983351.7127268,0.06922882795333862,0.11894549429416651,-0.46879875659942627,-1.1511591672897339,0.3480880558490765,9.661399841308594
1785983351.7322872,0.05394304543733597,0.1370097249746322,-0.46773064136505127,-0.12530604004859924,-0.15496262907981753,9.707137107849121
1785983351.7515423,0.022867567837238312,0.12869380414485926,-0.4698094129562378,-0.12416858971118927,0.11779835075140117,9.64594841003418
1785983351.7776358,0.004646092187613249,0.0974722728133201,-0.47415298223495483,-0.16562461853027344,-0.2619785368442523,9.804773330688477
1785983351.792469,-0.032038234174251556,0.04153414815664286,-0.4811902940273285,0.028058500960469246,-0.1160108521580684,9.814435005187988
1785983351.8134842,-0.022554796189069748,-0.000507753808051408,-0.4924461245536804,-0.13408710062503815,0.11398477107286574,9.901411056518555
1785983351.832392,-0.018211284652352333,-0.013674868270754877,-0.5030866861343384,0.8448352217674255,-0.7371460795402515,9.702327728271484
1785983351.8768446,-0.016205843538045883,-0.045398522168397966,-0.5045320391654968,-0.32841020822525024,-0.35049736499786255,9.813109397888184
1785983351.8916304,0.0122834462672472,-0.033652912825346055,-0.5215938687324524,-0.44025719165802,-0.2769635021686542,9.805930137634277
1785983351.9136846,0.011345143429934978,-0.07373949140310294,-0.5342106223106384,0.27931493520736694,-0.7839772701263416,9.524253845214844
1785983351.9327466,0.03400544449687004,-0.07538639754056937,-0.536809504032135,-0.3245284855365753,-0.14509013295173528,9.568535804748535
1785983351.9516828,0.03266448527574539,-0.09979859739542014,-0.5311878323554993,-0.7666462063789368,0.42510911822319153,9.809308052062988
1785983351.9783468,0.01620876044034958,-0.13173584640026098,-0.5433462262153625,1.2538565397262573,-0.07799521833658099,9.795082092285156
1785983351.993596,0.02100563421845436,-0.12507289648056036,-0.5512738227844238,-0.41402295231819153,-1.4376330375671376,9.437394142150879
1785983352.0119362,0.01315833255648613,-0.13153703510761267,-0.5541805028915405,-0.4811623990535736,0.3335037827491772,9.420907020568848
1785983352.03344,0.014087007381021976,-0.09765870869159705,-0.5630084276199341,-0.08793184161186218,-0.04048735648393516,9.378296852111816
1785983352.0529282,0.013404665514826775,-0.1058394983410836,-0.5760172009468079,-0.35509803891181946,-0.037095956504343754,9.671493530273438
1785983352.0756192,-0.00011201649613212794,-0.10527884215116508,-0.572685182094574,-0.35509803891181946,-0.037095956504343754,9.671493530273438
1785983352.1134944,-0.05185266211628914,-0.08786965161561973,-0.5752795934677124,-1.0533159971237183,1.1562783718109142,9.916419982910156
1785983352.1318057,-0.047855474054813385,-0.06693823635578162,-0.5772501826286316,1.0895850658416748,-2.2035653591155993,9.562679290771484
1785983352.1532815,-0.06249689683318138,-0.039177432656288216,-0.5910047888755798,0.08097825199365616,-0.061294741928576243,9.627091407775879
1785983352.1768122,-0.06102598458528519,-0.03357512876391418,-0.5922756195068359,1.0058470964431763,-0.9133569002151477,9.670639038085938
1785983352.1928568,-0.04487926512956619,-0.0250631049275399,-0.600237250328064,-0.7804986834526062,-0.17477104067802313,9.503693580627441
1785983352.213439,-0.0166559386998415,0.02142924256622784,-0.5966169238090515,0.5527392029762268,0.9628506898880017,9.852802276611328
1785983352.2315536,-0.003631377127021551,0.036199659109115524,-0.6091302037239075,-0.5054481029510498,-0.7193849086761462,9.665933609008789
1785983352.2516708,-0.010873818770051003,0.043050538748502655,-0.6114584803581238,-0.8608564734458923,0.19269934296608093,9.884902000427246
1785983352.2787633,-0.027223879471421242,0.04989135265350334,-0.625990092754364,-0.05687756463885307,-0.5305531024932849,9.531070709228516
1785983352.294222,-0.04042394831776619,0.07006439566612235,-0.6350762844085693,0.6602837443351746,-0.3721591830253589,10.02906322479248
1785983352.3136806,-0.039666518568992615,0.03830096870660774,-0.649790346622467,0.6602837443351746,-0.3721591830253589,10.02906322479248
1785983352.3325791,-0.05629068240523338,0.025747552514076153,-0.6529645919799805,-0.2766476571559906,0.025562517344952806,9.59592056274414
1785983352.351698,-0.07217659801244736,-0.002446761820465406,-0.6500611305236816,-0.1522742211818695,-0.10998772829770927,9.443882942199707
1785983352.3781102,-0.07324416190385818,-0.012091614305973135,-0.6655833721160889,0.6653825640678406,-0.6192587614059437,9.33298397064209
1785983352.3927104,-0.07013411819934845,-0.03521538525819787,-0.6802915930747986,0.6653825640678406,-0.6192587614059437,9.33298397064209
1785983352.4124622,-0.07849130779504776,-0.017237123101949775,-0.6752591133117676,-2.133129596710205,0.40518900752067694,10.319129943847656
1785983352.4336557,-0.07146511226892471,0.021428303793072617,-0.6900717616081238,0.6786467432975769,-0.7620049118995655,9.512434005737305
1785983352.4526322,-0.08202891051769257,0.019339978694915688,-0.6940722465515137,-0.284271240234375,-0.04982013255357625,9.583839416503906
1785983352.4779367,-0.05205406993627548,0.041965670883655465,-0.7012779712677002,-0.15491870045661926,-0.004031635820864424,9.861812591552734
1785983352.4927175,-0.05946829915046692,0.04516151919960967,-0.6937233805656433,-0.11626523733139038,-0.6844089031219471,9.507086753845215
1785983352.5129604,-0.03842313960194588,0.06187429279088965,-0.7093225717544556,-0.4391193985939026,-0.2625555694103229,9.797849655151367
1785983352.5315342,-0.009276794269680977,0.06317850947380058,-0.7078225612640381,-0.5697125792503357,-0.26466557383537176,9.704020500183105
1785983352.5532844,-0.012457827106118202,0.051734492182731545,-0.7001318335533142,-0.43532994389533997,-0.3200867176055896,10.03335189819336
1785983352.6115286,0.03172421455383301,0.0329071767628192,-0.7113785743713379,-0.41036444902420044,0.49924752116203425,9.740056037902832
1785983352.6338575,0.026595285162329674,0.020736424252390775,-0.6989763379096985,0.5227118134498596,0.019638925790787905,9.4891357421875
1785983352.6526449,0.049569349735975266,0.023141285404562863,-0.6999394297599792,-0.6452425122261047,0.29473406076431397,10.143001556396484
1785983352.675433,0.02115008607506752,0.010487668216228398,-0.7058807611465454,-0.6452425122261047,0.29473406076431397,10.143001556396484
1785983352.6937063,-0.03158748149871826,0.0055480292066930875,-0.6928381323814392,2.444786548614502,0.2305760979652416,9.088322639465332
1785983352.7137356,-0.05538515746593475,0.018685856834053906,-0.6993896961212158,-0.7794795036315918,0.37537544965744146,10.522150993347168
1785983352.7328103,-0.04427376762032509,0.029697615653276357,-0.6984722018241882,-0.39796262979507446,0.6567286849021924,10.041007041931152
1785983352.7536848,-0.08034434914588928,0.013489271514117633,-0.6931792497634888,-0.16492262482643127,-0.6428208351135242,9.527387619018555
1785983352.777584,-0.08059335500001907,-0.007475857622921549,-0.6729262471199036,0.011957753449678421,0.024435229599477054,9.759057998657227
1785983352.7925057,-0.05303794518113136,-0.024348858743906104,-0.6884214282035828,-0.00637078657746315,-0.39633232355117676,10.012194633483887
1785983352.833664,-0.09235162287950516,-0.053061950951814735,-0.6635851263999939,-0.00637078657746315,-0.39633232355117676,10.012194633483887
1785983352.8526094,-0.048300135880708694,-0.055345080792903976,-0.6500024795532227,-0.6582173705101013,0.5495819449424757,10.541425704956055
1785983352.8772202,-0.023069191724061966,-0.02088378369808205,-0.6563579440116882,-0.3433694541454315,0.6379008293151868,9.935798645019531
1785983352.8935382,-0.016016986221075058,-0.026273516938090404,-0.6522266268730164,-0.1454121470451355,0.14218223094940308,9.983933448791504
1785983352.9141757,0.03302086144685745,-0.014622886665165504,-0.6464682221412659,-1.2903982400894165,-0.11997683346271386,10.526423454284668
1785983352.932644,0.08555548638105392,-0.03956209868192681,-0.6551945209503174,0.5494953393936157,-0.6025656461715686,9.818302154541016
1785983352.9528437,0.08682607859373093,-0.05578673258423813,-0.6461986303329468,0.754071056842804,0.4208770990371716,9.691000938415527
1785983352.9763107,0.10548862814903259,-0.04071121662855156,-0.6281602382659912,1.3226944208145142,-1.0522546768188465,9.095463752746582
1785983352.9916654,0.15135018527507782,-0.02297488600015648,-0.6243306398391724,0.2404503971338272,0.4793236255645764,10.137083053588867
1785983353.0136235,0.1472535878419876,-0.02696713805198677,-0.6220563650131226,-0.5294482707977295,0.841508746147157,10.22581958770752
1785983353.0316987,0.1216345727443695,-0.025855474174022747,-0.6078590750694275,-1.522674560546875,0.2554264366626753,10.75413703918457
1785983353.0516546,0.15606288611888885,-0.046554159373045044,-0.6111488938331604,-1.1362295150756836,-0.6458991765975941,9.508944511413574
1785983353.0762691,0.16709302365779877,-0.034120231866836624,-0.6044966578483582,0.09161324799060822,0.12043824046850322,9.6840181350708
1785983353.093781,0.1546238660812378,-0.03878868371248253,-0.6106831431388855,0.13433927297592163,0.3036617636680615,9.894087791442871
1785983353.1527734,0.149216428399086,-0.006164051592350082,-0.6263899803161621,-1.548025369644165,0.11832057684660083,10.15674114227295
1785983353.175761,0.15303580462932587,0.030549570918083115,-0.6277749538421631,0.06579970568418503,-0.29030317068099853,9.757769584655762
1785983353.1940744,0.16730773448944092,0.03008324280381195,-0.6262753009796143,0.07366571575403214,0.33314263820648315,9.888652801513672
1785983353.21288,0.15790048241615295,0.03888461738824837,-0.6220847368240356,0.9002954363822937,0.3029936552047741,9.43266773223877
1785983353.2316673,0.1113022193312645,-0.013715274631977156,-0.6079642176628113,0.9002954363822937,0.3029936552047741,9.43266773223877
1785983353.25259,0.13808827102184296,-0.0008690678514540938,-0.6063370108604431,-0.5694046020507812,0.5381668210029614,9.895805358886719
1785983353.278618,0.13432848453521729,-0.03592509031295783,-0.5843366980552673,-0.0925813764333725,-0.4767804145812976,9.799318313598633
1785983353.293645,0.13947737216949463,-0.02689316496253021,-0.5979316234588623,-0.3707435429096222,0.10941649973392606,9.743175506591797
1785983353.3136768,0.1527850329875946,-0.05263825133442886,-0.5883225202560425,1.6811333894729614,-0.43363589048385504,9.409036636352539
1785983353.3326619,0.1576758772134781,-0.04061947017908103,-0.5828643441200256,-1.1662205457687378,-0.13230229914188263,9.863812446594238
1785983353.3518913,0.13759587705135345,-0.02264642156660564,-0.5932218432426453,-1.0558899641036987,-0.8530662059783923,9.874360084533691
1785983353.3779113,0.13358014822006226,-0.024079086259007523,-0.5805746912956238,1.3965009450912476,0.07094411551952479,9.521973609924316
1785983353.3928182,0.13461434841156006,0.020802535116672443,-0.5922147631645203,-1.2020041942596436,0.0828315466642392,9.935850143432617
1785983353.4115748,0.1034822165966034,0.02186705358326428,-0.571099579334259,0.25689080357551575,-0.3206047415733326,9.502364158630371
1785983353.4337296,0.0745941698551178,0.05616440996527665,-0.5764750838279724,-0.9347075819969177,0.263047367334367,9.551236152648926
1785983353.4519768,0.0730428397655487,0.02906348928809159,-0.5786129236221313,0.9125065207481384,-1.2128680944442738,9.48697566986084
1785983353.4750109,0.06459375470876694,0.05283789336681359,-0.5795554518699646,0.9125065207481384,-1.2128680944442738,9.48697566986084
1785983353.4937124,0.035351675003767014,0.05312764644622796,-0.5773234963417053,-1.0677950382232666,-0.10477019101381183,9.73990535736084
1785983353.5117671,0.02029360830783844,0.03976493701338761,-0.5761972665786743,-1.0677950382232666,-0.10477019101381183,9.73990535736084
1785983353.532773,0.020869558677077293,0.04512425884604447,-0.5653710961341858,2.094913959503174,0.5532002449035656,9.217340469360352
1785983353.5517924,0.003260220866650343,0.04093690589070313,-0.5681981444358826,-1.4554857015609741,0.5262913107872021,10.06554126739502
1785983353.5780027,-0.04337912052869797,0.06171179935336106,-0.5614409446716309,-0.7497568726539612,-0.28460568189620855,9.643315315246582
1785983353.592627,-0.04690904542803764,0.047387782484292915,-0.561863124370575,-0.3735677897930145,0.13862928748130918,9.69287395477295
1785983353.6115265,-0.023563355207443237,0.06263139098882668,-0.560494065284729,-0.28296583890914917,-0.7733738422393788,9.484795570373535
1785983353.6326506,-0.024652915075421333,0.0285943187773227,-0.5527027249336243,-1.4820234775543213,0.35157719254493836,10.132695198059082
1785983353.6516101,-0.012897726148366928,0.03400241956114762,-0.5535075068473816,-0.2410651445388794,-0.3439927399158466,9.723123550415039
1785983353.6782598,-0.022424357011914253,0.0032262476161121663,-0.5367915034294128,-0.6460496187210083,0.9370397329330457,9.79007339477539
1785983353.693699,-0.02907106839120388,-0.017788730561733312,-0.531536877155304,0.6254408359527588,-0.3431926071643817,9.762147903442383
1785983353.7145572,-0.02475627511739731,-0.03880279138684279,-0.5259828567504883,0.10860280692577362,0.8469967842102063,9.989840507507324
1785983353.7327685,-0.026692111045122147,-0.06708851456642158,-0.5245038270950317,0.04983537644147873,0.7530516982078564,10.023983001708984
1785983353.7528474,0.0018572797998785973,-0.05320268869400031,-0.5236817598342896,-1.2740142345428467,-0.22023515403270597,10.117691993713379
1785983353.8126836,0.0009211854194290936,-0.050137829035520616,-0.5208235383033752,0.16994334757328033,0.32366603612899897,9.486330032348633
1785983353.8318117,-0.01622738130390644,-0.01847595535218722,-0.5222195982933044,-0.6202913522720337,0.6276114583015454,9.950418472290039
1785983353.8526368,0.009066984988749027,-0.011527893133461538,-0.5162885785102844,0.14199411869049072,-0.7690497040748584,9.905294418334961
1785983353.8780088,-0.006927630864083767,-0.0011534051736817382,-0.5045945644378662,0.9867943525314331,-1.7418831586837757,9.591670036315918
1785983353.892697,-0.011917647905647755,0.01577738486230367,-0.5004501938819885,-0.7306462526321411,0.8768495917320264,10.044673919677734
1785983353.9136856,-0.007864315062761307,-0.0012613506987691541,-0.5035073757171631,-0.6284765005111694,0.44900164008140686,9.817544937133789
1785983353.954511,-0.041644297540187836,0.02678416296839708,-0.4943239092826843,-0.3163471221923828,0.662226200103761,9.755072593688965
1785983353.99284,-0.0037561776116490364,0.03459068760275835,-0.47859880328178406,0.3514226973056793,0.27419877052307245,9.725162506103516
1785983354.0120902,-0.026978475973010063,0.03900997713208193,-0.4802274703979492,0.13609778881072998,-0.07380769401788594,9.633748054504395
1785983354.0314794,-0.03577945753931999,0.06165362894535059,-0.47756412625312805,-0.9570829272270203,1.0892097949981703,10.006624221801758
1785983354.0526075,-0.01706049218773842,0.0562389120459556,-0.4794660806655884,-0.14511282742023468,0.8352162241935742,10.095398902893066
1785983354.0761356,-0.04223522171378136,0.069457396864891,-0.4872974753379822,-0.3390052914619446,0.5624556541442883,9.626773834228516
1785983354.0915482,-0.07073534280061722,0.06428873538970942,-0.4833642244338989,-0.3390052914619446,0.5624556541442883,9.626773834228516
1785983354.1538215,-0.08497142791748047,0.07260290533304209,-0.45655378699302673,0.893267035484314,0.02215755730867505,9.710988998413086
1785983354.1751466,-0.071172796189785,0.0812374129891395,-0.45188456773757935,-1.4312130212783813,0.5874147415161146,10.511945724487305
1785983354.1936264,-0.10054253041744232,0.0934543684124946,-0.4409421384334564,-0.2857376039028168,0.1304750740528119,10.082110404968262
1785983354.2126749,-0.15542341768741608,0.10033334791660303,-0.43531039357185364,0.1047564446926117,0.036420688033105136,9.738414764404297
1785983354.2321935,-0.13347692787647247,0.06512144207954401,-0.42167219519615173,-0.08316449820995331,0.24077144265174993,10.37465763092041
1785983354.2537978,-0.0773274302482605,0.07817868888378138,-0.4206956923007965,-1.6317319869995117,-0.36872440576553217,10.327797889709473
1785983354.2770143,-0.09908351302146912,0.07562284916639322,-0.4103512465953827,0.954463005065918,0.39207726716995356,9.566904067993164
1785983354.2937956,-0.09705199301242828,0.021673530340194654,-0.39982864260673523,-0.7121230363845825,0.37510186433792236,10.197781562805176
1785983354.313965,-0.04082062467932701,-0.015194296836853076,-0.3991944491863251,-0.29931724071502686,0.10426546633243683,10.004727363586426
1785983354.3337975,-0.02203620783984661,-0.04712184518575673,-0.38389939069747925,1.1049320697784424,-0.10849060118198277,9.59326457977295
1785983354.3529594,-0.05556970089673996,-0.07712174206972126,-0.3757052421569824,1.1645056009292603,0.9732383489608777,10.360790252685547
1785983354.3767169,-0.01176896970719099,-0.10737337172031407,-0.3617907464504242,-0.7888641953468323,-0.14455325901508206,10.22081470489502
1785983354.392968,-0.0017914886120706797,-0.1303262114524842,-0.35573962330818176,-0.5513367652893066,0.6435992717742932,10.08305549621582
1785983354.4125211,0.012723186984658241,-0.10424166172742848,-0.3478560149669647,0.7092188596725464,0.5776377320289624,9.924724578857422
1785983354.4338562,0.027810383588075638,-0.10287158191204075,-0.34022393822669983,-1.031294584274292,0.4375721812248243,10.410340309143066
1785983354.4525983,0.07368189841508865,-0.06857015937566761,-0.33504459261894226,-0.7467777132987976,0.2955402135849011,9.976801872253418
1785983354.476132,0.08121257275342941,-0.03922388330101971,-0.33215633034706116,-0.225197434425354,-0.26824784278869507,10.020364761352539
1785983354.5139399,0.12075711786746979,0.03832423314452168,-0.30466926097869873,0.02193927764892578,0.20041732490062833,9.671197891235352
1785983354.5340195,0.1381247192621231,0.03941635414957997,-0.294833779335022,0.24969549477100372,0.4244250357151043,9.669018745422363
1785983354.5543275,0.1107361689209938,0.04744194075465199,-0.28728410601615906,-0.7456751465797424,0.4899601936340344,10.02804183959961
1785983354.5769773,0.11435459554195404,0.04085110127925869,-0.2820358872413635,-0.7456751465797424,0.4899601936340344,10.02804183959961
1785983354.592485,0.11794238537549973,0.010294094681739774,-0.2707807123661041,0.2772265374660492,-0.27194070816039917,9.953625679016113
1785983354.6136909,0.12128985673189163,-0.010976868681609662,-0.25946250557899475,0.12585143744945526,0.10576826333999753,9.766457557678223
1785983354.6328444,0.11039876192808151,-0.03509143739938739,-0.24489706754684448,-0.3584558963775635,1.4149479866027845,10.071409225463867
1785983354.652653,0.10706401616334915,-0.032589823007583646,-0.24671222269535065,0.3856194019317627,0.32694101333618286,9.909734725952148
1785983354.6750603,0.11659538745880127,-0.01057806145399812,-0.2506921589374542,-0.39461374282836914,0.5941256284713757,10.077702522277832
1785983354.693986,0.09728508442640305,-0.01199332997202876,-0.22863399982452393,0.9502459764480591,0.4907139241695416,9.92155933380127
1785983354.7142835,0.09348732233047485,-0.013286264613270789,-0.2356530725955963,-0.36166971921920776,0.44928094744682434,10.0481595993042
1785983354.732872,0.0835094228386879,-0.007215800695121314,-0.21557395160198212,0.5331544280052185,0.05141647160053374,9.85037612915039
1785983354.7531266,0.0667429268360138,-0.003035136032849577,-0.21988685429096222,-1.2215404510498047,-0.4398930966854083,9.955986976623535
1785983354.7763236,0.039921920746564865,-0.03244020044803622,-0.2084883600473404,0.3245101571083069,0.4887126982212079,9.945852279663086
1785983354.7941427,0.037845440208911896,-0.024788849055767084,-0.21008992195129395,0.27095943689346313,0.5059582591056836,9.815601348876953
1785983354.8126528,0.04596297815442085,-0.03372206911444667,-0.20635280013084412,0.5407494306564331,-0.29683864116668585,9.630105972290039
1785983354.8338392,0.046208590269088745,-0.04403538629412654,-0.19984480738639832,-0.5730065107345581,0.41639673709869507,9.982383728027344
1785983354.8522308,0.0457296222448349,-0.03755033016204836,-0.19487915933132172,0.26464608311653137,0.26705825328827026,9.793803215026855
1785983354.8780015,0.05785568431019783,-0.03930778056383135,-0.1958918273448944,0.13379424810409546,0.5373678207397473,10.023323059082031
1785983354.8927727,0.04456601291894913,-0.034498780965805075,-0.1942444145679474,-0.41844767332077026,0.19889102876186496,10.088523864746094
1785983354.9129393,0.02864149585366249,-0.039934180676937124,-0.18797969818115234,-0.02069144695997238,0.5797034502029431,9.669452667236328
1785983354.9322772,6.609499541809782e-05,-0.031142601743340517,-0.18815946578979492,0.22201183438301086,0.33830225467682007,10.043774604797363
1785983354.9515617,-0.0012877373956143856,-0.029201038181781793,-0.1890842169523239,-0.17387723922729492,0.5953238010406506,9.996028900146484
1785983354.9779825,-0.00942683219909668,-0.04489719867706301,-0.16894322633743286,-0.741194486618042,-1.2781568765640248,9.761549949645996
1785983354.9937537,-0.036474376916885376,-0.021613361313939115,-0.16827905178070068,1.2175993919372559,0.017369337379933607,9.83958625793457
1785983355.0321696,-0.041255321353673935,-0.02246234752237799,-0.15943001210689545,-0.8469053506851196,0.4344073534011853,10.105353355407715
1785983355.0542161,-0.042661335319280624,-0.0025997089687735033,-0.15500310063362122,0.8599429726600647,-0.20752465724944955,9.322525024414062
1785983355.0760229,-0.02961059659719467,0.005417719483375531,-0.1491989642381668,0.46233612298965454,0.015768341720105425,9.847372055053711
1785983355.0928793,0.00020718641462735832,0.03361331671476362,-0.15532051026821136,-0.10845712572336197,0.647680997848512,9.768342971801758
1785983355.1124628,0.010852135717868805,0.058414697647094706,-0.1453530341386795,-0.34920501708984375,0.19987821578979612,9.771770477294922
1785983355.133967,-0.0020989265758544207,0.08761125057935713,-0.13575394451618195,-0.20704001188278198,-0.28660470247268555,9.799699783325195
1785983355.1529412,0.00818468164652586,0.10907740890979765,-0.13015548884868622,-0.5599485039710999,0.5873463749885571,9.943694114685059
1785983355.1764753,0.03160213679075241,0.11519963294267653,-0.12385749816894533,0.13227492570877075,0.3215899765491497,9.693559646606445
1785983355.1937644,0.0016241566045209765,0.106344997882843,-0.11664634943008424,-0.7607269883155823,-0.21762955188751099,9.912827491760254
1785983355.212718,0.005881843157112598,0.11210977286100386,-0.10499174892902376,0.8828042149543762,-0.3587377071380603,9.79243278503418
1785983355.2337196,0.022062847390770912,0.08572251349687575,-0.1143292933702469,-0.24724102020263672,0.7852288484573376,10.105886459350586
1785983355.2528696,0.005915225949138403,0.08624558150768279,-0.10072146356105806,-0.36737295985221863,0.7240492105484021,9.764659881591797
1785983355.2768645,0.0009050951921381056,0.07948701083660124,-0.09031717479228975,0.0171365886926651,-0.5396402478218066,9.883430480957031
1785983355.291853,0.005133649334311485,0.07184164226055144,-0.09010111540555955,0.6825575232505798,0.8742086291313184,9.608338356018066
1785983355.3134842,-0.014113805256783962,0.05326202139258384,-0.07933246344327927,-0.2873168885707855,-0.5377370119094836,9.924599647521973
1785983355.3323936,-0.036825984716415405,0.05184676125645637,-0.08465208858251572,-0.27035093307495117,1.1828615665435804,10.018014907836914
1785983355.352904,-0.04068152606487274,0.047603175044059746,-0.0633760318160057,0.9054317474365234,-0.1835170835256565,9.490602493286133
1785983355.3782265,-0.05378907918930054,0.005732973106205456,-0.0659027025103569,-1.0686091184616089,1.5249376296997084,10.011113166809082
1785983355.3939793,-0.04166620224714279,-0.042675882577896125,-0.05856450274586677,-0.5860432386398315,-0.12160302698612091,9.949247360229492
1785983355.4137328,-0.04317258298397064,-0.08324126899242401,-0.05594318360090255,-0.5860432386398315,-0.12160302698612091,9.949247360229492
1785983355.4328601,-0.023570803925395012,-0.10733126848936082,-0.05702988058328627,-0.7548639178276062,0.5535036325454724,10.238924980163574
1785983355.4775062,-0.08191421627998352,-0.038825318217277534,-0.04019086435437202,0.402401864528656,0.35154587030410883,9.717357635498047
1785983355.4929395,-0.07815564423799515,-0.0033708047121763264,-0.02671372890472412,0.3782530426979065,-0.44921493530273315,9.809925079345703
1785983355.51384,-0.06148722767829895,0.021389480680227276,-0.02220573648810387,-0.8873050808906555,1.2812639474868788,10.156875610351562
1785983355.5342314,-0.05935981497168541,0.0578351654112339,-0.02187075093388558,-0.36854153871536255,0.36027428507804987,9.724660873413086
1785983355.55296,-0.05142311379313469,0.060151997953653336,-0.01572063565254212,-0.36854153871536255,0.36027428507804987,9.724660873413086
1785983355.577016,-0.003939223941415548,0.07869092375040054,-0.01043609157204629,0.024448655545711517,0.4240550696849835,9.777154922485352
1785983355.5924575,0.005732217337936163,0.08284354954957962,-0.002471076790243397,-2.4427435398101807,1.0346076488494886,10.176627159118652
1785983355.6123772,0.02236090414226055,0.06677641719579697,-0.0019706808961927973,0.8782446384429932,-1.3423378467559803,9.476934432983398
1785983355.633911,0.04540746286511421,0.06725473701953888,-0.008253460749983796,0.20922476053237915,0.1846369355916989,9.732962608337402
1785983355.6539521,0.09289412945508957,0.054827649146318436,-0.005170447286218412,-0.3900015354156494,0.757242798805238,10.027527809143066
1785983355.6787302,0.08402317017316818,0.022914547473192215,-0.010146616958081726,0.46655145287513733,-0.5859079360961902,9.625843048095703
1785983355.6924112,0.049321021884679794,0.05882403627038002,0.004238773137331002,-1.8138245344161987,1.8467638492584242,10.334782600402832
1785983355.7128618,0.06209307909011841,0.05282100662589073,-0.005005323328077799,0.8114097118377686,-1.5114953517913807,9.915472984313965
1785983355.731937,0.018458297476172447,0.02997736632823944,-0.008082294836640361,-0.11630392074584961,0.4450918436050427,9.86176872253418
1785983355.7764158,-0.010683015920221806,-0.0059899473562836664,-0.011886468157172203,-0.5864261388778687,-0.22629323601722595,10.08511734008789
1785983355.8131745,-0.08410551398992538,0.004473282489925621,-0.016344904899597168,0.7506870031356812,-1.0356953144073475,9.538992881774902
1785983355.8323545,-0.08446168899536133,0.022803951054811474,-0.023493099957704548,-0.33449825644493103,0.0452823266386998,9.998056411743164
1785983355.8538446,-0.04698963463306427,-0.004844369366765026,-0.030272867530584335,-0.5072422623634338,0.8166977763175977,10.260415077209473
1785983355.876922,-0.06258759647607803,0.0015974118141457395,-0.034920938313007355,-0.8870644569396973,0.5856828689575208,10.019522666931152
1785983355.8923078,-0.0699034258723259,0.0165114514529705,-0.03248279541730881,0.6571141481399536,0.023680783808232537,9.651878356933594
1785983355.9118953,-0.025968674570322037,0.01945379748940467,-0.046057552099227905,0.1538943499326706,0.5189802646636975,9.90971565246582
1785983355.9339454,-0.03185484558343887,0.020416507497429844,-0.03523621708154678,-0.8361536264419556,1.947964429855348,10.199057579040527
1785983355.9540377,-0.0627513974905014,-0.004630016162991529,-0.04353197664022446,-1.1861722469329834,1.0521821975708021,10.410223007202148
1785983355.9780927,-0.029619377106428146,-0.029483469203114517,-0.0440513752400875,0.3917885422706604,-0.6201527714729297,9.697633743286133
1785983355.9930325,0.008816396817564964,-0.04077560082077981,-0.04812278598546981,0.5268699526786804,0.8409621715545667,9.686368942260742
1785983356.0137973,-0.021896399557590485,-0.04511244967579842,-0.04208822548389434,0.9339674115180969,0.06614250689745065,9.412710189819336
1785983356.0322902,-0.009066165424883366,-0.06356804072856903,-0.03657793998718261,-0.9124285578727722,0.5301126241683973,10.687042236328125
1785983356.0538397,0.02653561905026436,-0.043252881616353996,-0.03525105118751525,-0.4352227747440338,-0.07344086468219632,10.165385246276855
1785983356.0766923,-0.03811079263687134,-0.04350879415869713,-0.021873874589800828,-0.4304744303226471,1.2801790237426771,9.998648643493652
1785983356.0924416,-0.06214285269379616,-0.026951104402542118,-0.02118236199021339,0.8074783682823181,-0.16961331665515778,9.882182121276855
1785983356.1128826,-0.029132191091775894,-0.019418913871049884,-0.02129995077848434,-1.0326429605484009,0.3023258745670331,9.841421127319336
1785983356.1339908,-0.04080156981945038,-0.03875735029578209,-0.0146105196326971,-0.5522898435592651,0.6222748160362256,10.043599128723145
1785983356.152963,-0.07083860039710999,-0.03132642060518265,-0.021108455955982205,0.7574787139892578,1.23701846599579,10.16251277923584
1785983356.1764915,-0.022676758468151093,-0.014462098479270939,-0.024594271555542942,0.7574787139892578,1.23701846599579,10.16251277923584
1785983356.1937778,0.012860817834734917,0.016321137547492977,-0.021540997549891475,-0.8319535255432129,0.8956810235977185,9.980356216430664
1785983356.2127805,0.0033307992853224277,0.03886203095316887,-0.020736208185553554,-0.42695313692092896,-0.21110509335994596,10.1243257522583
1785983356.2347107,0.04376918077468872,0.031782884150743484,-0.014579463750123981,0.5367450714111328,-0.3776611089706409,9.661737442016602
1785983356.252663,0.07039900124073029,0.03440605849027634,-0.02424874529242516,1.2074085474014282,0.3847961723804485,8.989630699157715
1785983356.2783115,0.06561528146266937,-0.00895752012729645,-0.012949324212968348,0.9974631667137146,0.4987315535545361,9.619415283203125
1785983356.2940693,0.06926147639751434,-0.004373066127300265,-0.018177352845668793,-0.2697193920612335,0.6803400516510022,10.072175979614258
1785983356.314098,0.1053965613245964,-0.03539103642106056,-0.020401660352945324,-0.6725208163261414,0.5941700339317334,9.740483283996582
1785983356.3328779,0.07145457714796066,-0.03442513197660446,-0.020759729668498036,-1.0028555393218994,0.08891695737838871,10.319235801696777
1785983356.3520062,0.039943888783454895,-0.028795674443244938,-0.026274068281054493,-0.370995432138443,-0.20270457863807553,10.189624786376953
1785983356.3754158,0.0338699109852314,0.017917504534125325,-0.024668158963322643,0.6993972659111023,0.4282054007053387,9.548952102661133
1785983356.3940413,-0.007265424821525812,0.03807596117258072,-0.02256244979798794,0.495066374540329,0.34279918670654413,9.740690231323242
1785983356.4127433,-0.05678942799568176,0.05145368352532387,-0.02412907965481282,0.5364763140678406,0.30327942967414984,10.231661796569824
1785983356.4324322,-0.052130285650491714,0.05758779123425484,-0.025067148730158813,-0.9602156281471252,-0.20382779836654538,10.236197471618652
1785983356.4522858,-0.06703779101371765,0.07978575676679611,-0.025601614266633998,-0.9414536356925964,0.9363507032394423,10.840727806091309
1785983356.478228,-0.07241044193506241,0.06225564703345298,-0.029486019164323814,-0.396950900554657,0.18774291872978333,10.031248092651367
1785983356.492801,-0.08286344259977341,0.055947426706552505,-0.02306328713893891,-0.396950900554657,0.18774291872978333,10.031248092651367
1785983356.5142636,-0.049327824264764786,0.04051514342427254,-0.012536297552287584,-1.5372273921966553,0.21084286272525912,10.103340148925781
1785983356.5327675,-0.029223058372735977,0.03221694380044937,-0.02359888516366482,-0.7192850112915039,1.079847097396852,10.532430648803711
1785983356.5523858,-0.010014680214226246,0.003011658322066067,-0.014048445038497448,-1.7348594665527344,0.42822563648224005,10.363636016845703
1785983356.592167,0.057961516082286835,-0.0065529835410416135,-0.008324813097715378,-0.5299150347709656,-0.42330548167228577,9.945662498474121
1785983356.6138268,0.0435396172106266,-0.023286325857043266,-0.006812737323343751,0.11794006824493408,0.07505834847688789,9.348489761352539
1785983356.632767,0.041540805250406265,-0.009529511444270613,-0.007180600892752408,-0.3311433792114258,-0.12263432145118601,9.156575202941895
1785983356.6528647,0.0703219473361969,-0.007383195217698814,-0.015449916012585161,0.973362147808075,-0.14658924937248113,9.563332557678223
1785983356.6763868,0.06393709033727646,0.006681347731500862,-0.014856334775686264,-0.3023322820663452,0.58837127685547,9.803075790405273
1785983356.6920063,0.054221756756305695,0.04232259467244148,-0.014858238399028783,-0.3023322820663452,0.58837127685547,9.803075790405273
1785983356.7132316,0.05784883350133896,0.0745869129896164,-0.027012964710593234,-0.3023322820663452,0.58837127685547,9.803075790405273
1785983356.7322555,0.027421802282333374,0.08732566237449646,-0.010704752057790767,-0.3023322820663452,0.58837127685547,9.803075790405273
1785983356.7538013,0.004107855726033449,0.12199655920267105,-0.006929341237992063,-1.2782886028289795,0.5162428021430981,10.160693168640137
1785983356.7772584,0.0034479957539588213,0.15256267786026,0.0035768838133662753,-1.524968147277832,0.7018393874168408,10.037006378173828
1785983356.7927065,0.020827148109674454,0.1431853473186493,0.0008520644041709426,-0.44907328486442566,-0.6361073255538928,9.970529556274414
1785983356.8121717,0.02240716852247715,0.10304369777441025,-0.005124674644321216,-0.44907328486442566,-0.6361073255538928,9.970529556274414
1785983356.832204,0.035013772547245026,0.09578531235456467,0.007624458521604526,0.03472300246357918,0.6405115127563489,9.789507865905762
1785983356.8540351,0.05717924237251282,0.055841997265815735,0.0021695944014936616,0.15262190997600555,0.05241315066814539,9.510016441345215
1785983356.877117,0.0645509883761406,0.0022967397235333937,0.01463040430098772,-1.2439504861831665,-0.06543047726154207,9.868432998657227
1785983356.891922,0.03710680454969406,-0.010283594019711016,0.012813357636332514,-0.1984022557735443,0.06908892095089082,10.049642562866211
1785983356.9125955,0.02879471145570278,-0.04802180081605911,0.022558886557817466,0.36319699883461,0.43703624606132624,9.559978485107422
1785983356.934083,0.034758422523736954,-0.04683880507946014,0.02997411414980889,-0.10000582784414291,0.5785498619079602,10.28512954711914
1785983356.9529428,-0.013244572095572948,-0.05503113940358161,0.03801091760396958,-0.4415883421897888,-0.15511447191238284,9.748429298400879
1785983356.993761,-0.02306416817009449,-0.11142626404762268,0.04622631520032884,-0.4415883421897888,-0.15511447191238284,9.748429298400879
1785983357.0127182,-0.024640576913952827,-0.12261947989463806,0.05479541793465616,-1.150718092918396,0.35862255096435663,9.73800277709961
1785983357.033789,-0.055963754653930664,-0.13128310441970825,0.06188438087701799,0.07897573709487915,-0.26688805222511175,9.666706085205078
1785983357.052421,-0.05089239776134491,-0.14159323275089264,0.057755094021558775,-0.7045979499816895,0.4461324512958539,9.9005708694458
1785983357.0767882,-0.05951942130923271,-0.11884545534849165,0.06455575674772264,-1.2869316339492798,1.1114498376846327,10.025622367858887
1785983357.0920155,-0.08966159075498581,-0.08916933089494705,0.05265453457832338,1.4121222496032715,-0.7068327665328968,9.411761283874512
1785983357.1130645,-0.08990375697612762,-0.043995879590511315,0.04698480293154717,-0.05096432566642761,0.1272332519292843,9.62867259979248
1785983357.1325655,-0.1160438060760498,-0.009710112586617463,0.06028292328119278,0.025820963084697723,-0.6334079504013049,10.0263032913208
1785983357.1539428,-0.12381786108016968,-0.006103935185819859,0.04126780480146408,0.88724285364151,-0.9526662826538075,9.508737564086914
1785983357.1772566,-0.14735975861549377,0.02249206602573395,0.04235250502824783,-0.5633711814880371,1.8547258377075209,10.355786323547363
1785983357.2118855,-0.1375379115343094,0.031438000500202186,0.030737908557057377,-0.3842119574546814,0.16869527101516846,9.86648178100586
1785983357.2332175,-0.11849749833345413,-0.002472986467182633,0.027562573552131653,-1.8879081010818481,-0.5878331661224353,10.15346622467041
1785983357.2525332,-0.11143623292446136,-0.03386569768190384,0.02607901953160763,-0.5741733312606812,0.5421650409698499,9.79973316192627
1785983357.2786987,-0.09837815910577774,-0.01899327151477337,0.013284505344927313,0.39169034361839294,-0.36787745356559637,9.575621604919434
1785983357.293894,-0.09106545150279999,-0.033427540212869644,0.010316649451851848,-1.078706979751587,0.04574450105428819,10.062914848327637
1785983357.3124483,-0.0744796022772789,-0.033458027988672256,0.003273771610111002,0.2102096974849701,-1.3485618829727162,9.632013320922852
1785983357.3340602,-0.058419354259967804,-0.05143017694354057,-0.0009590983390808043,-0.04320751130580902,0.23156526684761164,9.529006004333496
1785983357.3532407,-0.04875659570097923,-0.08153188228607178,-0.0065742349252104655,-2.1258578300476074,-0.4491057991981494,10.16697883605957
1785983357.3765936,-0.050769880414009094,-0.11085103452205658,-0.01770723052322863,-1.1208665370941162,0.48747557401657227,10.04827880859375
1785983357.4122453,-0.03874926641583443,-0.1146990954875946,-0.008864127099513994,1.0199614763259888,-0.551214575767516,9.384900093078613
1785983357.4339385,-0.055865079164505005,-0.12480943650007248,-0.00896481424570082,0.7180947661399841,0.2899827361106884,9.49621868133545
1785983357.4530656,-0.04626653715968132,-0.12522242963314056,-0.005150839220732435,-0.8076817393302917,0.587772071361543,10.256473541259766
1785983357.4763703,0.01376811508089304,-0.11017592996358871,-0.0049968636594712595,-0.7204161882400513,-0.3122412562370288,10.004629135131836
1785983357.4940388,0.005771798547357321,-0.11017113924026489,-0.009220438078045831,-1.458308458328247,0.8240097165107739,10.106060028076172
1785983357.5139277,0.003908559214323759,-0.11172721534967422,-0.007103708107024417,-0.6401244401931763,0.4286172389984143,10.060178756713867
1785983357.5329216,0.018012097105383873,-0.10006753355264664,-0.002290897537022817,-0.766689658164978,0.21208401024341705,9.949718475341797
1785983357.5519352,0.03242327645421028,-0.09420444071292877,0.001750441268086445,0.9387623071670532,-0.011834025382994464,9.324341773986816
1785983357.5768127,0.008476948365569115,-0.07436797767877579,-0.004867783281952133,-0.6014760136604309,0.9515277743339551,9.782519340515137
1785983357.5923426,0.07689982652664185,-0.08118610084056854,-0.0025203574914485116,0.3316834270954132,0.59178525209427,10.089890480041504
1785983357.6141407,0.10879747569561005,-0.05639670416712761,-0.00629949010908603,0.05022352933883667,0.3307025730609906,10.023077964782715
1785983357.6327524,0.11787989735603333,-0.036252010613679886,0.0007385268690995916,-0.8314407467842102,-0.021686822175978348,10.3416109085083
1785983357.6538715,0.15526056289672852,0.0006984180072322499,0.008909567259252071,-0.5639199018478394,-0.12228535115718718,10.13951587677002
1785983357.6772735,0.15576796233654022,0.06405980885028839,0.010214908979833117,-1.6336584091186523,0.11900705099105957,9.949923515319824
1785983357.6920185,0.14778760075569153,0.07123876363039017,0.021350188180804242,1.2000428438186646,0.029171444475651932,9.343310356140137
1785983357.7141528,0.14630357921123505,0.07756029069423676,0.022674636915326108,-1.3773460388183594,0.27491727471351746,10.160978317260742
1785983357.7331388,0.16836698353290558,0.09139066189527512,0.0198177471756935,-0.3770075738430023,0.12434771656990175,10.05206298828125
1785983357.7751238,0.09716812521219254,0.10002545267343521,0.028433136641979204,0.8787276148796082,-0.07306292653083685,9.479779243469238
1785983357.7923386,0.08788757771253586,0.08433053642511368,0.04074456542730331,-1.3483479022979736,0.5390662550926221,9.902464866638184
1785983357.813919,0.026584442704916,0.09637873619794846,0.024268940091133107,0.4954257607460022,-0.5662516355514514,9.774369239807129
1785983357.8329737,-0.004443609155714512,0.08299263566732407,0.028885381296277036,-1.3771485090255737,0.3514210581779493,10.239360809326172
1785983357.8538542,-0.019760167226195335,0.07092412561178207,0.02557484619319438,0.22301709651947021,-0.07709373533725622,9.508339881896973
1785983357.8766975,-0.0329841747879982,0.0787888914346695,0.020561670884490003,0.09152831137180328,0.11528463661670803,9.60107135772705
1785983357.8939755,-0.034441277384757996,0.07273145020008087,0.018179696053266515,1.2665505409240723,-0.45371204614639166,9.397605895996094
1785983357.912574,-0.025196975097060204,0.05205019563436508,0.013978169299662106,-0.42965438961982727,-0.7619903087615955,9.753057479858398
1785983357.9326158,-0.02439979836344719,0.04738427698612213,0.012466447427868838,0.21922674775123596,0.8055129051208508,9.705110549926758
1785983357.954019,-0.04828724265098572,0.04962855577468872,0.009490108117461198,-2.134004831314087,1.6372764110565199,10.053065299987793
1785983357.977431,-0.023922061547636986,-0.0024573134724050747,0.00958084873855114,-0.03744988888502121,-0.9810164570808398,9.5274019241333
1785983357.9918528,-0.024752620607614517,-0.00528224278241396,-0.004240620881319045,-0.03744988888502121,-0.9810164570808398,9.5274019241333
1785983358.0125773,-0.06422504037618637,-0.031200168654322624,-0.0014131302013993224,-0.5400803685188293,-0.03555814921855807,9.749456405639648
1785983358.031874,-0.06932200491428375,-0.03244558721780777,-0.0022527431137859782,-0.421793669462204,0.15642447769641998,9.889728546142578
1785983358.0537705,-0.05894672870635986,-0.05162942409515381,-0.0070527633652090966,-0.147825688123703,1.0833156108856212,9.911526679992676
1785983358.077132,-0.07483114302158356,-0.03409682214260101,-0.012289818376302716,-0.147825688123703,1.0833156108856212,9.911526679992676
1785983358.0927413,-0.08546283841133118,-0.03760131448507309,-0.010519796982407565,0.14740809798240662,-0.31638878583907964,9.730284690856934
1785983358.111572,-0.05962494760751724,-0.022600769996643066,-0.013262994587421414,0.7174270749092102,0.8088307380676282,10.035266876220703
1785983358.13341,-0.020021429285407066,-0.040724121034145355,-0.011450421996414656,-0.5667209029197693,0.3204550147056592,10.09388256072998
1785983358.1530137,-0.004434539936482906,-0.026996884495019913,-0.007650610059499737,-1.6617505550384521,-0.18270382285117978,10.142986297607422
1785983358.1757822,0.04896969348192215,-0.02886926755309105,-0.006342491135001179,0.23365119099617004,-0.2155975103378284,9.728438377380371
1785983358.193965,0.008870943449437618,-0.032764583826065063,-0.001462514279410239,0.4694371819496155,0.3558666110038769,9.640763282775879
1785983358.2128289,-0.04424804821610451,-0.011980468407273293,-0.006737771444022654,-0.46256062388420105,0.3503784537315381,10.1665620803833
1785983358.2337904,-0.059324588626623154,-0.05023510009050369,0.00577689008787275,-2.220661163330078,-0.0049070566892611255,10.325849533081055
1785983358.2528956,-0.0528036467730999,-0.03434094786643982,-0.0022037618327885823,0.32841676473617554,-0.2328704893589008,9.460623741149902
1785983358.2760885,-0.06103061884641647,-0.052972130477428436,0.003980515059083706,0.2215433120727539,1.043653964996339,9.877973556518555
1785983358.292057,-0.03614485263824463,-0.05524954944849014,-0.0033564516343176296,0.2742539644241333,0.4097704887390149,9.88565444946289
1785983358.311932,-0.0036082929000258446,-0.04316967725753784,-0.0022542662918567605,-2.6674916744232178,0.38612633943557867,10.60295295715332
1785983358.3339813,0.0017074140487238765,-0.037957265973091125,0.00565728591755033,-1.184366226196289,0.9621210694313062,9.93187427520752
1785983358.352087,0.01710606925189495,-0.03685924410820007,-0.002076481236144896,0.5629736185073853,0.3535133600234997,9.523221015930176
1785983358.37849,0.03612544387578964,-0.04340808838605881,0.007543190848082309,-0.5496858954429626,0.9905906319618237,9.549132347106934
1785983358.3917532,0.034237850457429886,-0.023191099986433983,0.001784284599125388,-1.2955782413482666,1.20415234565735,10.652791023254395
1785983358.4133365,0.022444631904363632,-0.04011521115899086,0.011296460404992109,-0.7154418230056763,-0.8374337553977954,9.976176261901855
1785983358.4323683,0.023793891072273254,-0.01851426251232624,0.01366547215729952,-0.23596888780593872,-0.45202136039733765,9.908724784851074
1785983358.4542322,0.03924516960978508,0.019419878721237183,0.008220364339649676,-0.4263262450695038,0.45116740465164307,10.042283058166504
1785983358.4772575,0.04144766181707382,0.056755777448415756,0.005981690250337117,-0.38043496012687683,0.7518213391304028,10.00373649597168
1785983358.4920907,0.049765121191740036,0.030389199033379555,0.01188915595412254,-0.38043496012687683,0.7518213391304028,10.00373649597168
1785983358.5119221,0.0738033801317215,0.031229509040713314,0.019657269120216366,0.5584616661071777,1.1292542219161998,9.752242088317871
1785983358.5320497,0.06088244169950485,0.03751300275325775,0.010385281406342978,-0.9896621108055115,0.5997895598411572,9.902239799499512
1785983358.5548944,0.038472261279821396,0.03382289409637451,0.01685703359544277,-0.02924279123544693,0.4105620980262768,9.706877708435059
1785983358.5927825,0.048305194824934006,0.05827080458402634,0.0013828501105308461,-0.05810440331697464,0.9812386035919202,10.226616859436035
1785983358.6322803,0.024226699024438858,0.05728645995259285,-0.005647474434226758,-1.162616491317749,-0.6418982744216907,10.213460922241211
1785983358.6546147,0.01422546710819006,0.07092782855033875,-0.004272327758371839,-0.4658130705356598,-0.012153163552283002,10.117156028747559
1785983358.676811,-0.022328879684209824,0.08307195454835892,-0.014704562723636638,-1.4211422204971313,0.7168245911598218,9.964285850524902
1785983358.693036,-0.023309363052248955,0.06759180128574371,-0.01858401112258435,-0.2234363853931427,0.3831816315650952,9.903559684753418
1785983358.7140934,0.008340046741068363,0.04041372612118721,-0.02810342982411385,-1.4082459211349487,0.8611508011817944,10.206032752990723
1785983358.7340822,0.0013679333496838808,0.027966458350419995,-0.021303303539752964,-0.3984326124191284,-0.7451560497283924,9.505090713500977
1785983358.7540445,-0.007757832761853933,0.03916282579302788,-0.02638618461787701,-1.467719316482544,0.34140735864639404,10.003392219543457
1785983358.7768283,0.0009491607779636979,0.03285013511776924,-0.027404764667153362,-0.21705135703086853,0.1552431881427777,10.038799285888672
1785983358.792283,0.005773595999926329,0.039951521903276443,-0.026689428836107257,-1.0089517831802368,0.03861298412084701,9.923272132873535
1785983358.8142207,0.020432142540812492,0.026500979438424107,-0.030567377805709842,0.13928180932998657,-0.14210258424281957,9.407256126403809
1785983358.8342593,0.008074874058365822,0.013347573578357693,-0.025975048542022705,0.13928180932998657,-0.14210258424281957,9.407256126403809
1785983358.8533401,-0.008182224817574024,0.002250093501061197,-0.030821476131677628,-0.6336163282394409,-0.4280251264572132,9.474910736083984
1785983358.8759532,-0.012723858468234539,-0.007682499475777153,-0.026408309116959572,0.4112582504749298,-0.5363922119140614,9.410943031311035
1785983358.8940134,-0.03304409608244896,0.011583700776100157,-0.020999791100621223,0.7500095963478088,0.46984553337097285,9.644962310791016
1785983358.912035,-0.032555460929870605,0.010881460271775719,-0.025745939463377,-0.484081894159317,0.02617357671260957,10.055932998657227
1785983358.9340146,-0.018461408093571663,0.024261159822344776,-0.019770612940192226,-0.484081894159317,0.02617357671260957,10.055932998657227
1785983358.9533248,-0.020656775683164597,0.007854151539504525,-0.022983362898230553,-2.160574197769165,0.32522577047348145,9.981307983398438
1785983358.9760532,-0.01596066728234291,0.02023319154977798,-0.019547691568732265,-1.163551926612854,0.6720789074897778,10.16059684753418
1785983358.9940426,0.006867508869618177,0.018344823271036145,-0.02515036799013615,0.19111573696136475,-0.32715904712676885,9.384181022644043
1785983359.012999,0.01860249973833561,0.02787117473781109,-0.011194333434104923,-1.3944718837738037,0.08929088711738709,9.985650062561035
1785983359.0340962,0.03438565507531166,0.04147307574748993,-0.015774579718708995,0.46232864260673523,-0.05827072262763865,9.113373756408691
1785983359.052926,0.04953884333372116,0.051060616970062256,-0.008581819944083698,-0.6426751613616943,0.4353960752487194,9.60732650756836
1785983359.0753608,0.08269397169351578,0.04119650274515152,-0.009682945907115941,-0.23462927341461182,-0.38890397548675415,9.93358039855957
1785983359.0939498,0.10020101070404053,0.042880795896053314,-0.0030779398512095265,-0.41628241539001465,0.30286437273025635,10.002609252929688
1785983359.1141732,0.11576735973358154,0.017058171331882477,-0.004588067065924408,-0.5709698796272278,0.14669106900692108,9.891278266906738
1785983359.133119,0.08280519396066666,0.0456990972161293,-0.002238993765786296,-0.7784674167633057,-0.11313894391059756,9.752819061279297
1785983359.1541438,0.09004181623458862,0.038022104650735855,-0.00622388301417232,0.403802752494812,-0.5267549157142628,9.280138969421387
1785983359.1766229,0.07853695750236511,0.024176238104701042,-0.009448654949665073,-0.08108029514551163,0.8382474184036267,10.074140548706055
1785983359.1942291,0.06825443357229233,0.018271347507834435,-0.008751859888434412,0.6386669278144836,0.4542991518974316,9.486793518066406
1785983359.212922,0.056940361857414246,-0.033578597009181976,-0.004740383476018901,0.6386669278144836,0.4542991518974316,9.486793518066406
1785983359.253981,0.025327039882540703,-0.058096226304769516,-0.0032720547169446876,0.1081404834985733,0.20783554017543912,9.638042449951172
1785983359.2774012,0.04307708516716957,-0.07644888013601303,-0.004697126336395731,-1.5161244869232178,0.005444183945657059,10.095625877380371
1785983359.2921503,0.02216157130897045,-0.09707491099834442,0.004047292284667504,0.5918675065040588,-0.01848259568214297,9.758140563964844
1785983359.3140662,0.0024609288666397333,-0.07740920037031174,0.0030948785133659935,0.04050310701131821,0.3951143622398388,9.73975658416748
1785983359.3328667,-0.012365558184683323,-0.07892142236232758,-0.001489614835008969,0.17577515542507172,0.32154497504234436,9.874720573425293
1785983359.3528762,-0.02840319275856018,-0.0792982205748558,0.001459593418985615,-0.5111215710639954,0.2101888358592999,9.678248405456543
1785983359.3930178,-0.08046644181013107,-0.0842021033167839,0.006161584984511147,-1.133415699005127,-0.543864846229552,9.83633804321289
1785983359.413957,-0.09602965414524078,-0.08633115887641907,0.002840181346982728,1.3459542989730835,0.3383804559707653,9.594239234924316
1785983359.4329958,-0.08775440603494644,-0.09806917607784271,0.002603209810331476,-0.3543771207332611,-0.10685026645660281,9.713248252868652
1785983359.452508,-0.06007220968604088,-0.12677864730358124,0.0005108062759973264,-0.7435773015022278,-0.13294458389282104,10.084321975708008
1785983359.476522,-0.05060122162103653,-0.114970862865448,0.008330718614161028,-0.6709781885147095,-0.5124756693840015,9.882287979125977
1785983359.494084,-0.0441657118499279,-0.12092836946249008,0.009055569767951981,-1.1554944515228271,-0.04151615500450012,9.988755226135254
1785983359.5140908,-0.014199672266840935,-0.09287112951278687,0.004086244385689508,0.966048538684845,0.22280339896679038,9.357491493225098
1785983359.533276,-0.0065643563866615295,-0.10902342945337296,0.013424661941826357,0.911425769329071,-0.09689939022064092,9.492217063903809
1785983359.5529954,-0.014532895758748055,-0.07130302488803864,0.013151894323527822,0.911425769329071,-0.09689939022064092,9.492217063903809
1785983359.5784957,0.012961364351212978,-0.056704189628362656,0.018150383606553085,0.008701898157596588,-0.06715838611125827,9.748537063598633
1785983359.592169,0.013353963382542133,-0.0332745760679245,0.023856898769736293,-1.6520884037017822,0.14130567014217502,10.241703987121582
1785983359.6129544,0.01627708412706852,-0.022914079949259755,0.04166398197412491,-0.1999545395374298,-0.18687772750854373,9.830907821655273
1785983359.6329808,0.031170818954706192,0.000733275781385606,0.043939679861068726,-0.998088538646698,0.5043727159500134,9.863460540771484
1785983359.6775358,0.07398468255996704,0.026490556076169017,0.03826087340712547,-1.4183330535888672,0.19124519824981814,10.12064266204834
1785983359.6931384,0.08525828272104263,0.047648485749959946,0.02767197042703628,-0.38768789172172546,-0.5925429463386523,10.005850791931152
1785983359.7146802,0.09921696037054062,0.0702294111251831,0.026382749900221818,-1.2649729251861572,-0.783457279205321,9.944421768188477
1785983359.7336981,0.0968099981546402,0.08913486450910568,0.01583310030400752,0.3456684947013855,-0.5896818637847888,9.94617748260498
1785983359.7530913,0.06463892012834549,0.09557906538248062,0.01452771760523318,-0.9643858075141907,1.1269652843475355,10.048298835754395
1785983359.7784855,0.022257311269640923,0.08510994166135788,0.001786079257726659,-0.7622396349906921,0.3285713791847241,10.0097017288208
1785983359.7941706,0.0076277172192931175,0.09749922901391983,-0.0059215305373072746,0.10262841731309891,-0.6418178081512439,9.77978515625
1785983359.8329487,-0.039930619299411774,0.06844737380743027,-0.004087830893695363,0.001528806984424591,-0.31435385346412537,9.766874313354492
1785983359.8524253,-0.07159916311502457,0.03484756499528885,-0.009348919615149501,-1.0569231510162354,0.4575372338294995,10.121874809265137
1785983359.8792508,-0.07750767469406128,0.03353153541684151,-0.01630596444010735,-0.5943613648414612,0.5696803331375134,9.960111618041992
1785983359.8947875,-0.06813690811395645,-0.0038916817866265795,-0.01670701429247856,-0.6949801445007324,1.1112684011459362,9.915440559387207
1785983359.9121315,-0.08262038230895996,0.018880350515246388,-0.015653630718588833,-1.8591516017913818,0.3584114909172071,10.364655494689941
1785983359.9333246,-0.07696261256933212,0.026064462959766384,-0.016941875219345096,-2.4169633388519287,0.28535154461860784,10.620479583740234
1785983359.9531677,-0.07238367944955826,0.031669341027736664,-0.0166825894266367,-0.5903242230415344,0.24192123115062833,9.815512657165527
1785983359.9932046,-0.11702842265367508,0.036508414894342436,0.12253213673830032,-0.7830159068107605,0.16341370344162107,9.831411361694336
1785983360.0130987,-0.18389280140399933,0.06581136584281924,0.27248111367225647,-0.7719234228134155,0.8653637766838086,10.405845642089844
1785983360.0320685,-0.253530889749527,0.07054138183593754,0.37119144201278687,1.0340572595596313,0.1684986203908932,9.631003379821777
1785983360.0780666,-0.3989911675453186,0.10481894016265877,0.7046186923980713,1.0340572595596313,0.1684986203908932,9.631003379821777
1785983360.0936718,-0.34698933362960815,0.05660181120038042,0.798780620098114,-0.7036820650100708,0.4286588728427898,9.26235580444336
1785983360.11432,-0.3214113414287567,-0.00040787580655876393,0.9251224994659424,-0.6488415598869324,0.7581325769424451,10.310420036315918
1785983360.1331446,-0.27409204840660095,-0.06888628005981433,1.0638598203659058,-0.57490074634552,1.6286960840225233,10.23292350769043
1785983360.153366,-0.17527328431606293,-0.14165091514587388,1.1896564960479736,-0.6073734164237976,1.3426462411880506,10.608502388000488
1785983360.1759567,-0.10085178166627884,-0.1997061669826506,1.281360149383545,-0.8184764385223389,0.7597901821136487,9.603856086730957
1785983360.194017,-0.061680059880018234,-0.19292241334915144,1.427281379699707,-0.7424529790878296,0.807022809982301,10.073936462402344
1785983360.2124262,0.012459874153137207,-0.20516446232795696,1.522225260734558,-0.8070452213287354,0.15169291198253748,9.576545715332031
